"Subject","Task","Morality","Identity","Ntrials","corrTrials","ACC","RT"
7003,"Id","Bad","Other",72,68,0.944444444444444,632.798529411765
7003,"Id","Bad","Self",72,69,0.958333333333333,565.8
7003,"Id","Good","Other",72,69,0.958333333333333,608.572463768116
7003,"Id","Good","Self",72,72,1,596.097222222222
7003,"Val","Bad","Other",72,71,0.986111111111111,598.278873239437
7003,"Val","Bad","Self",72,71,0.986111111111111,589.246478873239
7003,"Val","Good","Other",72,70,0.972222222222222,533.934285714286
7003,"Val","Good","Self",72,68,0.944444444444444,564.388235294118
7004,"Id","Bad","Other",72,69,0.958333333333333,519.872463768116
7004,"Id","Bad","Self",71,57,0.802816901408451,525.673684210526
7004,"Id","Good","Other",72,66,0.916666666666667,552.793939393939
7004,"Id","Good","Self",72,60,0.833333333333333,502.845
7004,"Val","Bad","Other",72,72,1,476.383333333333
7004,"Val","Bad","Self",72,64,0.888888888888889,479.7015625
7004,"Val","Good","Other",72,56,0.777777777777778,551.025
7004,"Val","Good","Self",72,72,1,502.672222222222
7005,"Id","Bad","Other",72,64,0.888888888888889,484.31875
7005,"Id","Bad","Self",72,67,0.930555555555556,535.431343283582
7005,"Id","Good","Other",72,72,1,466.256944444444
7005,"Id","Good","Self",72,72,1,491.343055555556
7005,"Val","Bad","Other",72,67,0.930555555555556,519.14776119403
7005,"Val","Bad","Self",72,71,0.986111111111111,540.540845070423
7005,"Val","Good","Other",72,69,0.958333333333333,499.826086956522
7005,"Val","Good","Self",72,72,1,451.616666666667
7006,"Id","Bad","Other",72,64,0.888888888888889,574.665625
7006,"Id","Bad","Self",72,66,0.916666666666667,541.722727272727
7006,"Id","Good","Other",72,68,0.944444444444444,474.925
7006,"Id","Good","Self",72,63,0.875,547.244444444444
7006,"Val","Bad","Other",72,66,0.916666666666667,474.531818181818
7006,"Val","Bad","Self",72,72,1,432.5625
7006,"Val","Good","Other",72,71,0.986111111111111,449.811267605634
7006,"Val","Good","Self",72,68,0.944444444444444,461.061764705882
7007,"Id","Bad","Other",72,71,0.986111111111111,519.228169014085
7007,"Id","Bad","Self",72,69,0.958333333333333,504.572463768116
7007,"Id","Good","Other",72,70,0.972222222222222,545.004285714286
7007,"Id","Good","Self",72,69,0.958333333333333,500.831884057971
7007,"Val","Bad","Other",72,72,1,508.295833333333
7007,"Val","Bad","Self",72,69,0.958333333333333,591.171014492754
7007,"Val","Good","Other",72,70,0.972222222222222,520.678571428571
7007,"Val","Good","Self",72,70,0.972222222222222,510.508571428571
7008,"Id","Bad","Other",72,53,0.736111111111111,435.096226415094
7008,"Id","Bad","Self",72,56,0.777777777777778,422.128571428571
7008,"Id","Good","Other",72,50,0.694444444444444,456.31
7008,"Id","Good","Self",72,51,0.708333333333333,410.598039215686
7008,"Val","Bad","Other",72,67,0.930555555555556,515.508955223881
7008,"Val","Bad","Self",72,64,0.888888888888889,537.7078125
7008,"Val","Good","Other",72,63,0.875,509.579365079365
7008,"Val","Good","Self",72,64,0.888888888888889,467.48125
7009,"Id","Bad","Other",72,60,0.833333333333333,565.306666666667
7009,"Id","Bad","Self",72,59,0.819444444444444,683.766101694915
7009,"Id","Good","Other",72,57,0.791666666666667,637.368421052632
7009,"Id","Good","Self",72,56,0.777777777777778,611.716071428571
7009,"Val","Bad","Other",72,65,0.902777777777778,541.153846153846
7009,"Val","Bad","Self",72,65,0.902777777777778,596.52
7009,"Val","Good","Other",72,63,0.875,584.060317460317
7009,"Val","Good","Self",72,70,0.972222222222222,543.261428571429
7010,"Id","Bad","Other",72,70,0.972222222222222,423.185714285714
7010,"Id","Bad","Self",72,72,1,407.440277777778
7010,"Id","Good","Other",72,71,0.986111111111111,413.628169014085
7010,"Id","Good","Self",72,70,0.972222222222222,439.93
7010,"Val","Bad","Other",72,68,0.944444444444444,486.573529411765
7010,"Val","Bad","Self",72,71,0.986111111111111,457.647887323944
7010,"Val","Good","Other",72,72,1,437.668055555556
7010,"Val","Good","Self",72,70,0.972222222222222,505.942857142857
7011,"Id","Bad","Other",72,68,0.944444444444444,507.761764705882
7011,"Id","Bad","Self",72,69,0.958333333333333,450.397101449275
7011,"Id","Good","Other",72,69,0.958333333333333,577.35652173913
7011,"Id","Good","Self",72,68,0.944444444444444,479.048529411765
7011,"Val","Bad","Other",72,68,0.944444444444444,531.805882352941
7011,"Val","Bad","Self",72,65,0.902777777777778,540.049230769231
7011,"Val","Good","Other",72,66,0.916666666666667,512.789393939394
7011,"Val","Good","Self",72,69,0.958333333333333,532.823188405797
7012,"Id","Bad","Other",72,63,0.875,490.877777777778
7012,"Id","Bad","Self",72,59,0.819444444444444,524.449152542373
7012,"Id","Good","Other",72,62,0.861111111111111,518.367741935484
7012,"Id","Good","Self",72,69,0.958333333333333,453.942028985507
7012,"Val","Bad","Other",71,52,0.732394366197183,479.875
7012,"Val","Bad","Self",72,49,0.680555555555556,464.359183673469
7012,"Val","Good","Other",72,51,0.708333333333333,518.894117647059
7012,"Val","Good","Self",72,51,0.708333333333333,486.378431372549
7013,"Id","Bad","Other",72,68,0.944444444444444,546.507352941176
7013,"Id","Bad","Self",72,69,0.958333333333333,557.2
7013,"Id","Good","Other",72,69,0.958333333333333,524.2
7013,"Id","Good","Self",72,71,0.986111111111111,476.371830985915
7013,"Val","Bad","Other",72,71,0.986111111111111,505
7013,"Val","Bad","Self",72,71,0.986111111111111,517.685915492958
7013,"Val","Good","Other",72,68,0.944444444444444,468.075
7013,"Val","Good","Self",72,72,1,430.441666666667
7014,"Id","Bad","Other",65,14,0.215384615384615,500.55
7014,"Id","Bad","Self",65,28,0.430769230769231,516.178571428571
7014,"Id","Good","Other",62,36,0.580645161290323,557.680555555556
7014,"Id","Good","Self",64,45,0.703125,528.526666666667
7014,"Val","Bad","Other",70,3,0.0428571428571429,716.9
7014,"Val","Bad","Self",68,54,0.794117647058823,500.783333333333
7014,"Val","Good","Other",69,61,0.884057971014493,419.265573770492
7014,"Val","Good","Self",69,61,0.884057971014493,467.977049180328
7015,"Id","Bad","Other",72,68,0.944444444444444,526.104411764706
7015,"Id","Bad","Self",72,67,0.930555555555556,490.920895522388
7015,"Id","Good","Other",72,64,0.888888888888889,537.2828125
7015,"Id","Good","Self",72,67,0.930555555555556,511.761194029851
7015,"Val","Bad","Other",72,69,0.958333333333333,517.784057971014
7015,"Val","Bad","Self",72,55,0.763888888888889,563.690909090909
7015,"Val","Good","Other",72,66,0.916666666666667,524.698484848485
7015,"Val","Good","Self",72,67,0.930555555555556,509.067164179105
7016,"Id","Bad","Other",72,71,0.986111111111111,520.107042253521
7016,"Id","Bad","Self",72,67,0.930555555555556,556.014925373134
7016,"Id","Good","Other",72,58,0.805555555555556,636.555172413793
7016,"Id","Good","Self",72,70,0.972222222222222,469.12
7016,"Val","Bad","Other",72,71,0.986111111111111,531.504225352113
7016,"Val","Bad","Self",72,61,0.847222222222222,615.193442622951
7016,"Val","Good","Other",72,68,0.944444444444444,644.229411764706
7016,"Val","Good","Self",72,72,1,528.490277777778
7018,"Id","Bad","Other",72,72,1,576.541666666667
7018,"Id","Bad","Self",72,72,1,496.345833333333
7018,"Id","Good","Other",72,72,1,490.655555555556
7018,"Id","Good","Self",72,72,1,518.106944444444
7018,"Val","Bad","Other",72,72,1,515.873611111111
7018,"Val","Bad","Self",72,72,1,495.236111111111
7018,"Val","Good","Other",72,72,1,427.102777777778
7018,"Val","Good","Self",72,72,1,493.336111111111
7019,"Id","Bad","Other",72,66,0.916666666666667,565.9
7019,"Id","Bad","Self",72,66,0.916666666666667,587.092424242424
7019,"Id","Good","Other",72,64,0.888888888888889,612.6953125
7019,"Id","Good","Self",72,69,0.958333333333333,562.76231884058
7019,"Val","Bad","Other",72,63,0.875,578.352380952381
7019,"Val","Bad","Self",72,65,0.902777777777778,588.164615384615
7019,"Val","Good","Other",72,61,0.847222222222222,551.375409836066
7019,"Val","Good","Self",72,65,0.902777777777778,580.489230769231
7020,"Id","Bad","Other",72,72,1,579.6
7020,"Id","Bad","Self",72,72,1,548.497222222222
7020,"Id","Good","Other",72,69,0.958333333333333,599.091304347826
7020,"Id","Good","Self",72,72,1,563.061111111111
7020,"Val","Bad","Other",72,72,1,620.411111111111
7020,"Val","Bad","Self",72,71,0.986111111111111,627.750704225352
7020,"Val","Good","Other",72,69,0.958333333333333,640.336231884058
7020,"Val","Good","Self",72,72,1,630.543055555555
7022,"Id","Bad","Other",72,68,0.944444444444444,670.676470588235
7022,"Id","Bad","Self",72,60,0.833333333333333,626.971666666667
7022,"Id","Good","Other",72,65,0.902777777777778,648.789230769231
7022,"Id","Good","Self",72,62,0.861111111111111,643.414516129032
7022,"Val","Bad","Other",72,62,0.861111111111111,655.941935483871
7022,"Val","Bad","Self",72,69,0.958333333333333,620.611594202899
7022,"Val","Good","Other",72,71,0.986111111111111,557.525352112676
7022,"Val","Good","Self",72,71,0.986111111111111,558.628169014085
7023,"Id","Bad","Other",72,66,0.916666666666667,535.883333333333
7023,"Id","Bad","Self",72,48,0.666666666666667,527.829166666667
7023,"Id","Good","Other",72,54,0.75,560.059259259259
7023,"Id","Good","Self",72,69,0.958333333333333,486.078260869565
7023,"Val","Bad","Other",72,70,0.972222222222222,512.848571428571
7023,"Val","Bad","Self",72,69,0.958333333333333,506.595652173913
7023,"Val","Good","Other",72,71,0.986111111111111,478.295774647887
7023,"Val","Good","Self",72,63,0.875,533.033333333333
7024,"Id","Bad","Other",61,33,0.540983606557377,424.106060606061
7024,"Id","Bad","Self",62,36,0.580645161290323,344.980555555556
7024,"Id","Good","Other",65,34,0.523076923076923,385.988235294118
7024,"Id","Good","Self",61,36,0.590163934426229,373.811111111111
7024,"Val","Bad","Other",60,42,0.7,448.630952380952
7024,"Val","Bad","Self",63,43,0.682539682539683,465.076744186046
7024,"Val","Good","Other",68,40,0.588235294117647,442.15
7024,"Val","Good","Self",60,41,0.683333333333333,388.419512195122
7025,"Id","Bad","Other",72,71,0.986111111111111,506.981690140845
7025,"Id","Bad","Self",72,54,0.75,585.324074074074
7025,"Id","Good","Other",72,64,0.888888888888889,558.8578125
7025,"Id","Good","Self",72,69,0.958333333333333,521.205797101449
7025,"Val","Bad","Other",72,70,0.972222222222222,490.632857142857
7025,"Val","Bad","Self",72,69,0.958333333333333,501.455072463768
7025,"Val","Good","Other",72,57,0.791666666666667,560.347368421053
7025,"Val","Good","Self",72,72,1,480.7125
7026,"Id","Bad","Other",72,63,0.875,501.750793650794
7026,"Id","Bad","Self",72,59,0.819444444444444,503.969491525424
7026,"Id","Good","Other",72,71,0.986111111111111,438.22676056338
7026,"Id","Good","Self",72,60,0.833333333333333,517
7026,"Val","Bad","Other",72,60,0.833333333333333,608.625
7026,"Val","Bad","Self",72,67,0.930555555555556,544.874626865672
7026,"Val","Good","Other",72,70,0.972222222222222,475.075714285714
7026,"Val","Good","Self",72,60,0.833333333333333,547.34
7028,"Id","Bad","Other",72,70,0.972222222222222,594.551428571429
7028,"Id","Bad","Self",72,65,0.902777777777778,606.96
7028,"Id","Good","Other",72,61,0.847222222222222,667.619672131148
7028,"Id","Good","Self",72,72,1,538.933333333333
7028,"Val","Bad","Other",72,69,0.958333333333333,598.950724637681
7028,"Val","Bad","Self",72,67,0.930555555555556,640.001492537313
7028,"Val","Good","Other",72,60,0.833333333333333,657.601666666667
7028,"Val","Good","Self",72,71,0.986111111111111,558.529577464789
7029,"Id","Bad","Other",72,64,0.888888888888889,596.8546875
7029,"Id","Bad","Self",72,63,0.875,587.415873015873
7029,"Id","Good","Other",72,57,0.791666666666667,646.09649122807
7029,"Id","Good","Self",72,67,0.930555555555556,561.265671641791
7029,"Val","Bad","Other",72,65,0.902777777777778,604.395384615385
7029,"Val","Bad","Self",72,68,0.944444444444444,616.323529411765
7029,"Val","Good","Other",72,59,0.819444444444444,586.884745762712
7029,"Val","Good","Self",72,67,0.930555555555556,533.517910447761
7030,"Id","Bad","Other",72,72,1,465.154166666667
7030,"Id","Bad","Self",72,72,1,474.045833333333
7030,"Id","Good","Other",72,71,0.986111111111111,449.53661971831
7030,"Id","Good","Self",72,71,0.986111111111111,479.412676056338
7030,"Val","Bad","Other",72,71,0.986111111111111,540.608450704225
7030,"Val","Bad","Self",72,71,0.986111111111111,528.367605633803
7030,"Val","Good","Other",72,69,0.958333333333333,487.059420289855
7030,"Val","Good","Self",72,68,0.944444444444444,524.425
7031,"Id","Bad","Other",72,69,0.958333333333333,618.998550724638
7031,"Id","Bad","Self",72,66,0.916666666666667,560.143939393939
7031,"Id","Good","Other",72,64,0.888888888888889,692.5796875
7031,"Id","Good","Self",72,67,0.930555555555556,618.813432835821
7031,"Val","Bad","Other",72,66,0.916666666666667,617.456060606061
7031,"Val","Bad","Self",72,55,0.763888888888889,668.816363636364
7031,"Val","Good","Other",72,56,0.777777777777778,673.023214285714
7031,"Val","Good","Self",72,63,0.875,605.712698412698
7032,"Id","Bad","Other",70,57,0.814285714285714,535.401754385965
7032,"Id","Bad","Self",70,60,0.857142857142857,503.416666666667
7032,"Id","Good","Other",71,59,0.830985915492958,580.491525423729
7032,"Id","Good","Self",72,65,0.902777777777778,419.246153846154
7032,"Val","Bad","Other",72,62,0.861111111111111,628.903225806452
7032,"Val","Bad","Self",72,54,0.75,679.161111111111
7032,"Val","Good","Other",72,54,0.75,662.97962962963
7032,"Val","Good","Self",72,69,0.958333333333333,507.323188405797
7033,"Id","Bad","Other",72,71,0.986111111111111,458.216901408451
7033,"Id","Bad","Self",72,71,0.986111111111111,589.970422535211
7033,"Id","Good","Other",72,68,0.944444444444444,594.207352941177
7033,"Id","Good","Self",72,68,0.944444444444444,578.423529411765
7033,"Val","Bad","Other",72,71,0.986111111111111,454.828169014084
7033,"Val","Bad","Self",72,70,0.972222222222222,447.728571428571
7033,"Val","Good","Other",72,66,0.916666666666667,554.077272727273
7033,"Val","Good","Self",72,71,0.986111111111111,517.185915492958
7034,"Id","Bad","Other",72,68,0.944444444444444,474.713235294118
7034,"Id","Bad","Self",71,54,0.76056338028169,475.118518518518
7034,"Id","Good","Other",72,58,0.805555555555556,447.327586206897
7034,"Id","Good","Self",72,69,0.958333333333333,491.265217391304
7034,"Val","Bad","Other",72,69,0.958333333333333,475.588405797101
7034,"Val","Bad","Self",72,67,0.930555555555556,422.679104477612
7034,"Val","Good","Other",72,70,0.972222222222222,410.014285714286
7034,"Val","Good","Self",72,69,0.958333333333333,464.166666666667
