"SubjectID","Age","Gender","Handness","moralSelfShape","immoralSelfShape","moralOtherShape","immoralOtherShape","Block","Bin","Trial","Task","shapeName","Identity","Morality","RT","ResponseKey","Accuracy","trialType"
"2027","20","male","R","Tra","C","S","P","1","1","1","importance","C","self","immoral","0.9002","O","0","important"
"2027","20","male","R","Tra","C","S","P","1","1","2","importance","S","other","moral","0.8005","P","1","important"
"2027","20","male","R","Tra","C","S","P","1","1","3","importance","Tra","self","moral","0.7728","P","1","important"
"2027","20","male","R","Tra","C","S","P","1","1","4","importance","Tra","self","moral","0.6268","P","1","important"
"2027","20","male","R","Tra","C","S","P","1","1","5","importance","C","self","immoral","0.4330","O","0","important"
"2027","20","male","R","Tra","C","S","P","1","1","6","importance","P","other","immoral","0.3952","O","0","unimportant"
"2027","20","male","R","Tra","C","S","P","1","1","7","importance","S","other","moral","0.2172","P","1","important"
"2027","20","male","R","Tra","C","S","P","1","1","8","importance","C","self","immoral","0.2474","O","0","important"
"2027","20","male","R","Tra","C","S","P","1","1","9","importance","C","self","immoral","0.3136","O","0","important"
"2027","20","male","R","Tra","C","S","P","1","1","10","importance","P","other","immoral","0.5258","P","0","unimportant"
"2027","20","male","R","Tra","C","S","P","1","1","11","importance","S","other","moral","0.5399","P","1","important"
"2027","20","male","R","Tra","C","S","P","1","1","12","importance","C","self","immoral","0.4000","O","0","important"
"2027","20","male","R","Tra","C","S","P","1","1","13","importance","C","self","immoral","0.3802","O","0","important"
"2027","20","male","R","Tra","C","S","P","1","1","14","importance","P","other","immoral","0.4744","P","0","unimportant"
"2027","20","male","R","Tra","C","S","P","1","1","15","importance","Tra","self","moral","0.5945","P","1","important"
"2027","20","male","R","Tra","C","S","P","1","1","16","importance","S","other","moral","0.4967","P","1","important"
"2027","20","male","R","Tra","C","S","P","1","1","17","importance","S","other","moral","0.4909","P","1","important"
"2027","20","male","R","Tra","C","S","P","1","1","18","importance","Tra","self","moral","0.4090","P","1","important"
"2027","20","male","R","Tra","C","S","P","1","1","19","importance","Tra","self","moral","0.5652","P","1","important"
"2027","20","male","R","Tra","C","S","P","1","1","20","importance","P","other","immoral","0.5573","P","0","unimportant"
"2027","20","male","R","Tra","C","S","P","1","1","21","importance","P","other","immoral","0.4195","P","0","unimportant"
"2027","20","male","R","Tra","C","S","P","1","1","22","importance","Tra","self","moral","0.3457","P","1","important"
"2027","20","male","R","Tra","C","S","P","1","1","23","importance","S","other","moral","0.5679","P","1","important"
"2027","20","male","R","Tra","C","S","P","1","1","24","importance","P","other","immoral","0.5320","P","0","unimportant"
"2027","20","male","R","Tra","C","S","P","1","2","1","importance","P","other","immoral","0.5542","P","0","unimportant"
"2027","20","male","R","Tra","C","S","P","1","2","2","importance","P","other","immoral","0.3944","P","0","unimportant"
"2027","20","male","R","Tra","C","S","P","1","2","3","importance","S","other","moral","0.3785","P","1","important"
"2027","20","male","R","Tra","C","S","P","1","2","4","importance","C","self","immoral","0.4246","O","0","important"
"2027","20","male","R","Tra","C","S","P","1","2","5","importance","Tra","self","moral","0.5988","P","1","important"
"2027","20","male","R","Tra","C","S","P","1","2","6","importance","S","other","moral","0.4949","P","1","important"
"2027","20","male","R","Tra","C","S","P","1","2","7","importance","C","self","immoral","0.3251","O","0","important"
"2027","20","male","R","Tra","C","S","P","1","2","8","importance","C","self","immoral","0.3293","O","0","important"
"2027","20","male","R","Tra","C","S","P","1","2","9","importance","C","self","immoral","0.3974","O","0","important"
"2027","20","male","R","Tra","C","S","P","1","2","10","importance","C","self","immoral","0.3615","O","0","important"
"2027","20","male","R","Tra","C","S","P","1","2","11","importance","S","other","moral","0.4578","P","1","important"
"2027","20","male","R","Tra","C","S","P","1","2","12","importance","Tra","self","moral","0.4079","P","1","important"
"2027","20","male","R","Tra","C","S","P","1","2","13","importance","P","other","immoral","0.4621","P","0","unimportant"
"2027","20","male","R","Tra","C","S","P","1","2","14","importance","S","other","moral","0.5222","P","1","important"
"2027","20","male","R","Tra","C","S","P","1","2","15","importance","P","other","immoral","0.5785","P","0","unimportant"
"2027","20","male","R","Tra","C","S","P","1","2","16","importance","P","other","immoral","0.4586","P","0","unimportant"
"2027","20","male","R","Tra","C","S","P","1","2","17","importance","P","other","immoral","0.4227","P","0","unimportant"
"2027","20","male","R","Tra","C","S","P","1","2","18","importance","C","self","immoral","0.5489","O","0","important"
"2027","20","male","R","Tra","C","S","P","1","2","19","importance","Tra","self","moral","0.4930","P","1","important"
"2027","20","male","R","Tra","C","S","P","1","2","20","importance","Tra","self","moral","0.3650","P","1","important"
"2027","20","male","R","Tra","C","S","P","1","2","21","importance","S","other","moral","0.4333","P","1","important"
"2027","20","male","R","Tra","C","S","P","1","2","22","importance","S","other","moral","0.4235","P","1","important"
"2027","20","male","R","Tra","C","S","P","1","2","23","importance","Tra","self","moral","0.4616","P","1","important"
"2027","20","male","R","Tra","C","S","P","1","2","24","importance","Tra","self","moral","0.4238","P","1","important"
"2027","20","male","R","Tra","C","S","P","1","3","1","importance","P","other","immoral","0.4640","P","0","unimportant"
"2027","20","male","R","Tra","C","S","P","1","3","2","importance","Tra","self","moral","0.3862","P","1","important"
"2027","20","male","R","Tra","C","S","P","1","3","3","importance","Tra","self","moral","0.4463","P","1","important"
"2027","20","male","R","Tra","C","S","P","1","3","4","importance","S","other","moral","0.4466","P","1","important"
"2027","20","male","R","Tra","C","S","P","1","3","5","importance","P","other","immoral","0.5246","P","0","unimportant"
"2027","20","male","R","Tra","C","S","P","1","3","6","importance","C","self","immoral","0.4929","O","0","important"
"2027","20","male","R","Tra","C","S","P","1","3","7","importance","P","other","immoral","0.5629","P","0","unimportant"
"2027","20","male","R","Tra","C","S","P","1","3","8","importance","S","other","moral","0.7711","P","1","important"
"2027","20","male","R","Tra","C","S","P","1","3","9","importance","C","self","immoral","0.6912","O","0","important"
"2027","20","male","R","Tra","C","S","P","1","3","10","importance","C","self","immoral","0.4614","O","0","important"
"2027","20","male","R","Tra","C","S","P","1","3","11","importance","S","other","moral","0.3636","P","1","important"
"2027","20","male","R","Tra","C","S","P","1","3","12","importance","C","self","immoral","0.4658","O","0","important"
"2027","20","male","R","Tra","C","S","P","1","3","13","importance","Tra","self","moral","0.3339","P","1","important"
"2027","20","male","R","Tra","C","S","P","1","3","14","importance","Tra","self","moral","0.3201","P","1","important"
"2027","20","male","R","Tra","C","S","P","1","3","15","importance","S","other","moral","0.2643","P","1","important"
"2027","20","male","R","Tra","C","S","P","1","3","16","importance","P","other","immoral","0.2764","P","0","unimportant"
"2027","20","male","R","Tra","C","S","P","1","3","17","importance","Tra","self","moral","0.3185","P","1","important"
"2027","20","male","R","Tra","C","S","P","1","3","18","importance","S","other","moral","0.3666","P","1","important"
"2027","20","male","R","Tra","C","S","P","1","3","19","importance","P","other","immoral","0.2829","P","0","unimportant"
"2027","20","male","R","Tra","C","S","P","1","3","20","importance","C","self","immoral","0.3770","O","0","important"
"2027","20","male","R","Tra","C","S","P","1","3","21","importance","Tra","self","moral","0.3232","P","1","important"
"2027","20","male","R","Tra","C","S","P","1","3","22","importance","C","self","immoral","0.3894","O","0","important"
"2027","20","male","R","Tra","C","S","P","1","3","23","importance","P","other","immoral","0.2655","P","0","unimportant"
"2027","20","male","R","Tra","C","S","P","1","3","24","importance","S","other","moral","0.4577","P","1","important"
"2027","20","male","R","Tra","C","S","P","1","4","1","importance","P","other","immoral","0.4334","P","0","unimportant"
"2027","20","male","R","Tra","C","S","P","1","4","2","importance","S","other","moral","0.3035","P","1","important"
"2027","20","male","R","Tra","C","S","P","1","4","3","importance","C","self","immoral","0.4437","O","0","important"
"2027","20","male","R","Tra","C","S","P","1","4","4","importance","P","other","immoral","0.3100","P","0","unimportant"
"2027","20","male","R","Tra","C","S","P","1","4","5","importance","P","other","immoral","0.3022","P","0","unimportant"
"2027","20","male","R","Tra","C","S","P","1","4","6","importance","Tra","self","moral","0.3043","P","1","important"
"2027","20","male","R","Tra","C","S","P","1","4","7","importance","S","other","moral","0.2985","P","1","important"
"2027","20","male","R","Tra","C","S","P","1","4","8","importance","Tra","self","moral","0.2145","P","1","important"
"2027","20","male","R","Tra","C","S","P","1","4","9","importance","C","self","immoral","0.4547","O","0","important"
"2027","20","male","R","Tra","C","S","P","1","4","10","importance","Tra","self","moral","0.2189","P","1","important"
"2027","20","male","R","Tra","C","S","P","1","4","11","importance","S","other","moral","0.2130","P","1","important"
"2027","20","male","R","Tra","C","S","P","1","4","12","importance","S","other","moral","0.3072","P","1","important"
"2027","20","male","R","Tra","C","S","P","1","4","13","importance","S","other","moral","0.2914","P","1","important"
"2027","20","male","R","Tra","C","S","P","1","4","14","importance","Tra","self","moral","0.2794","P","1","important"
"2027","20","male","R","Tra","C","S","P","1","4","15","importance","Tra","self","moral","0.2717","P","1","important"
"2027","20","male","R","Tra","C","S","P","1","4","16","importance","C","self","immoral","0.3239","O","0","important"
"2027","20","male","R","Tra","C","S","P","1","4","17","importance","C","self","immoral","0.3440","O","0","important"
"2027","20","male","R","Tra","C","S","P","1","4","18","importance","Tra","self","moral","0.2840","P","1","important"
"2027","20","male","R","Tra","C","S","P","1","4","19","importance","P","other","immoral","0.4323","P","0","unimportant"
"2027","20","male","R","Tra","C","S","P","1","4","20","importance","S","other","moral","0.2344","P","1","important"
"2027","20","male","R","Tra","C","S","P","1","4","21","importance","P","other","immoral","0.2787","P","0","unimportant"
"2027","20","male","R","Tra","C","S","P","1","4","22","importance","C","self","immoral","0.3867","O","0","important"
"2027","20","male","R","Tra","C","S","P","1","4","23","importance","P","other","immoral","0.2229","P","0","unimportant"
"2027","20","male","R","Tra","C","S","P","1","4","24","importance","C","self","immoral","0.3711","O","0","important"
"2027","20","male","R","Tra","C","S","P","1","5","1","importance","Tra","self","moral","0.2613","P","1","important"
"2027","20","male","R","Tra","C","S","P","1","5","2","importance","S","other","moral","0.2974","P","1","important"
"2027","20","male","R","Tra","C","S","P","1","5","3","importance","S","other","moral","0.2736","P","1","important"
"2027","20","male","R","Tra","C","S","P","1","5","4","importance","P","other","immoral","0.4317","P","0","unimportant"
"2027","20","male","R","Tra","C","S","P","1","5","5","importance","C","self","immoral","0.3819","O","0","important"
"2027","20","male","R","Tra","C","S","P","1","5","6","importance","C","self","immoral","0.4140","O","0","important"
"2027","20","male","R","Tra","C","S","P","1","5","7","importance","Tra","self","moral","0.4282","P","1","important"
"2027","20","male","R","Tra","C","S","P","1","5","8","importance","C","self","immoral","0.3904","O","0","important"
"2027","20","male","R","Tra","C","S","P","1","5","9","importance","C","self","immoral","0.3565","O","0","important"
"2027","20","male","R","Tra","C","S","P","1","5","10","importance","C","self","immoral","0.2805","O","0","important"
"2027","20","male","R","Tra","C","S","P","1","5","11","importance","S","other","moral","0.3328","P","1","important"
"2027","20","male","R","Tra","C","S","P","1","5","12","importance","C","self","immoral","0.3928","O","0","important"
"2027","20","male","R","Tra","C","S","P","1","5","13","importance","S","other","moral","0.2972","P","1","important"
"2027","20","male","R","Tra","C","S","P","1","5","14","importance","Tra","self","moral","0.4312","P","1","important"
"2027","20","male","R","Tra","C","S","P","1","5","15","importance","P","other","immoral","0.2994","P","0","unimportant"
"2027","20","male","R","Tra","C","S","P","1","5","16","importance","S","other","moral","0.3195","P","1","important"
"2027","20","male","R","Tra","C","S","P","1","5","17","importance","P","other","immoral","0.2737","P","0","unimportant"
"2027","20","male","R","Tra","C","S","P","1","5","18","importance","P","other","immoral","0.4099","P","0","unimportant"
"2027","20","male","R","Tra","C","S","P","1","5","19","importance","Tra","self","moral","0.2941","P","1","important"
"2027","20","male","R","Tra","C","S","P","1","5","20","importance","P","other","immoral","0.3301","P","0","unimportant"
"2027","20","male","R","Tra","C","S","P","1","5","21","importance","S","other","moral","0.2423","P","1","important"
"2027","20","male","R","Tra","C","S","P","1","5","22","importance","P","other","immoral","0.2325","P","0","unimportant"
"2027","20","male","R","Tra","C","S","P","1","5","23","importance","Tra","self","moral","0.2648","P","1","important"
"2027","20","male","R","Tra","C","S","P","1","5","24","importance","Tra","self","moral","0.3548","P","1","important"
"2027","20","male","R","Tra","C","S","P","1","6","1","importance","C","self","immoral","0.4551","O","0","important"
"2027","20","male","R","Tra","C","S","P","1","6","2","importance","Tra","self","moral","0.2731","P","1","important"
"2027","20","male","R","Tra","C","S","P","1","6","3","importance","S","other","moral","0.3413","P","1","important"
"2027","20","male","R","Tra","C","S","P","1","6","4","importance","C","self","immoral","0.4355","O","0","important"
"2027","20","male","R","Tra","C","S","P","1","6","5","importance","S","other","moral","0.2957","P","1","important"
"2027","20","male","R","Tra","C","S","P","1","6","6","importance","Tra","self","moral","0.3199","P","1","important"
"2027","20","male","R","Tra","C","S","P","1","6","7","importance","C","self","immoral","0.4480","O","0","important"
"2027","20","male","R","Tra","C","S","P","1","6","8","importance","P","other","immoral","0.3122","P","0","unimportant"
"2027","20","male","R","Tra","C","S","P","1","6","9","importance","S","other","moral","0.2843","P","1","important"
"2027","20","male","R","Tra","C","S","P","1","6","10","importance","P","other","immoral","0.3845","O","0","unimportant"
"2027","20","male","R","Tra","C","S","P","1","6","11","importance","P","other","immoral","0.5766","P","0","unimportant"
"2027","20","male","R","Tra","C","S","P","1","6","12","importance","Tra","self","moral","0.4949","P","1","important"
"2027","20","male","R","Tra","C","S","P","1","6","13","importance","C","self","immoral","0.4570","O","0","important"
"2027","20","male","R","Tra","C","S","P","1","6","14","importance","S","other","moral","0.4591","P","1","important"
"2027","20","male","R","Tra","C","S","P","1","6","15","importance","C","self","immoral","0.3132","O","0","important"
"2027","20","male","R","Tra","C","S","P","1","6","16","importance","C","self","immoral","0.4974","O","0","important"
"2027","20","male","R","Tra","C","S","P","1","6","17","importance","P","other","immoral","0.3516","P","0","unimportant"
"2027","20","male","R","Tra","C","S","P","1","6","18","importance","S","other","moral","0.3378","P","1","important"
"2027","20","male","R","Tra","C","S","P","1","6","19","importance","S","other","moral","0.4939","P","1","important"
"2027","20","male","R","Tra","C","S","P","1","6","20","importance","P","other","immoral","0.5982","P","0","unimportant"
"2027","20","male","R","Tra","C","S","P","1","6","21","importance","Tra","self","moral","0.4282","P","1","important"
"2027","20","male","R","Tra","C","S","P","1","6","22","importance","Tra","self","moral","0.5424","P","1","important"
"2027","20","male","R","Tra","C","S","P","1","6","23","importance","P","other","immoral","0.4405","P","0","unimportant"
"2027","20","male","R","Tra","C","S","P","1","6","24","importance","Tra","self","moral","0.4547","P","1","important"
"2027","20","male","R","Tra","C","S","P","2","1","1","self","P","other","immoral","0.7841","H","1","other"
"2027","20","male","R","Tra","C","S","P","2","1","2","self","P","other","immoral","0.9844","H","1","other"
"2027","20","male","R","Tra","C","S","P","2","1","3","self","C","self","immoral","0.7546","J","1","self"
"2027","20","male","R","Tra","C","S","P","2","1","4","self","Tra","self","moral","0.5728","J","1","self"
"2027","20","male","R","Tra","C","S","P","2","1","5","self","S","other","moral","0.3829","H","1","other"
"2027","20","male","R","Tra","C","S","P","2","1","6","self","P","other","immoral","0.6831","H","1","other"
"2027","20","male","R","Tra","C","S","P","2","1","7","self","S","other","moral","0.4833","H","1","other"
"2027","20","male","R","Tra","C","S","P","2","1","8","self","Tra","self","moral","0.3954","J","1","self"
"2027","20","male","R","Tra","C","S","P","2","1","9","self","C","self","immoral","0.5195","J","1","self"
"2027","20","male","R","Tra","C","S","P","2","1","10","self","C","self","immoral","0.4256","J","1","self"
"2027","20","male","R","Tra","C","S","P","2","1","11","self","S","other","moral","0.6280","H","1","other"
"2027","20","male","R","Tra","C","S","P","2","1","12","self","C","self","immoral","0.5279","J","1","self"
"2027","20","male","R","Tra","C","S","P","2","1","13","self","Tra","self","moral","0.4142","J","1","self"
"2027","20","male","R","Tra","C","S","P","2","1","14","self","P","other","immoral","0.4504","H","1","other"
"2027","20","male","R","Tra","C","S","P","2","1","15","self","Tra","self","moral","0.5164","J","1","self"
"2027","20","male","R","Tra","C","S","P","2","1","16","self","S","other","moral","0.4767","H","1","other"
"2027","20","male","R","Tra","C","S","P","2","1","17","self","P","other","immoral","0.5349","H","1","other"
"2027","20","male","R","Tra","C","S","P","2","1","18","self","S","other","moral","0.4211","H","1","other"
"2027","20","male","R","Tra","C","S","P","2","1","19","self","C","self","immoral","0.3792","J","1","self"
"2027","20","male","R","Tra","C","S","P","2","1","20","self","Tra","self","moral","0.7893","J","1","self"
"2027","20","male","R","Tra","C","S","P","2","1","21","self","P","other","immoral","0.6255","H","1","other"
"2027","20","male","R","Tra","C","S","P","2","1","22","self","Tra","self","moral","0.4437","J","1","self"
"2027","20","male","R","Tra","C","S","P","2","1","23","self","S","other","moral","0.4278","H","1","other"
"2027","20","male","R","Tra","C","S","P","2","1","24","self","C","self","immoral","0.3681","J","1","self"
"2027","20","male","R","Tra","C","S","P","2","2","1","self","C","self","immoral","0.4022","J","1","self"
"2027","20","male","R","Tra","C","S","P","2","2","2","self","C","self","immoral","0.3322","J","1","self"
"2027","20","male","R","Tra","C","S","P","2","2","3","self","S","other","moral","0.6243","H","1","other"
"2027","20","male","R","Tra","C","S","P","2","2","4","self","Tra","self","moral","0.4127","J","1","self"
"2027","20","male","R","Tra","C","S","P","2","2","5","self","Tra","self","moral","0.3647","J","1","self"
"2027","20","male","R","Tra","C","S","P","2","2","6","self","C","self","immoral","0.3689","J","1","self"
"2027","20","male","R","Tra","C","S","P","2","2","7","self","Tra","self","moral","0.4471","J","1","self"
"2027","20","male","R","Tra","C","S","P","2","2","8","self","S","other","moral","0.4932","H","1","other"
"2027","20","male","R","Tra","C","S","P","2","2","9","self","P","other","immoral","0.3273","H","1","other"
"2027","20","male","R","Tra","C","S","P","2","2","10","self","S","other","moral","0.3895","H","1","other"
"2027","20","male","R","Tra","C","S","P","2","2","11","self","P","other","immoral","0.4238","H","1","other"
"2027","20","male","R","Tra","C","S","P","2","2","12","self","P","other","immoral","0.3819","H","1","other"
"2027","20","male","R","Tra","C","S","P","2","2","13","self","Tra","self","moral","0.3680","J","1","self"
"2027","20","male","R","Tra","C","S","P","2","2","14","self","C","self","immoral","0.3682","J","1","self"
"2027","20","male","R","Tra","C","S","P","2","2","15","self","P","other","immoral","0.5003","H","1","other"
"2027","20","male","R","Tra","C","S","P","2","2","16","self","Tra","self","moral","0.3805","J","1","self"
"2027","20","male","R","Tra","C","S","P","2","2","17","self","Tra","self","moral","0.3348","J","1","self"
"2027","20","male","R","Tra","C","S","P","2","2","18","self","S","other","moral","0.5088","H","1","other"
"2027","20","male","R","Tra","C","S","P","2","2","19","self","P","other","immoral","0.6650","H","1","other"
"2027","20","male","R","Tra","C","S","P","2","2","20","self","C","self","immoral","0.3992","J","1","self"
"2027","20","male","R","Tra","C","S","P","2","2","21","self","P","other","immoral","0.4773","H","1","other"
"2027","20","male","R","Tra","C","S","P","2","2","22","self","S","other","moral","0.4955","H","1","other"
"2027","20","male","R","Tra","C","S","P","2","2","23","self","C","self","immoral","0.3638","J","1","self"
"2027","20","male","R","Tra","C","S","P","2","2","24","self","S","other","moral","0.5238","H","1","other"
"2027","20","male","R","Tra","C","S","P","2","3","1","self","Tra","self","moral","0.4860","J","1","self"
"2027","20","male","R","Tra","C","S","P","2","3","2","self","S","other","moral","0.6561","H","1","other"
"2027","20","male","R","Tra","C","S","P","2","3","3","self","Tra","self","moral","0.5443","H","0","self"
"2027","20","male","R","Tra","C","S","P","2","3","4","self","Tra","self","moral","0.4824","J","1","self"
"2027","20","male","R","Tra","C","S","P","2","3","5","self","C","self","immoral","0.3826","J","1","self"
"2027","20","male","R","Tra","C","S","P","2","3","6","self","S","other","moral","0.4106","H","1","other"
"2027","20","male","R","Tra","C","S","P","2","3","7","self","P","other","immoral","0.4849","H","1","other"
"2027","20","male","R","Tra","C","S","P","2","3","8","self","S","other","moral","0.4851","H","1","other"
"2027","20","male","R","Tra","C","S","P","2","3","9","self","P","other","immoral","0.4072","H","1","other"
"2027","20","male","R","Tra","C","S","P","2","3","10","self","P","other","immoral","0.3334","H","1","other"
"2027","20","male","R","Tra","C","S","P","2","3","11","self","C","self","immoral","0.4336","J","1","self"
"2027","20","male","R","Tra","C","S","P","2","3","12","self","Tra","self","moral","0.3137","J","1","self"
"2027","20","male","R","Tra","C","S","P","2","3","13","self","Tra","self","moral","0.3958","J","1","self"
"2027","20","male","R","Tra","C","S","P","2","3","14","self","P","other","immoral","0.5380","H","1","other"
"2027","20","male","R","Tra","C","S","P","2","3","15","self","S","other","moral","0.6481","H","1","other"
"2027","20","male","R","Tra","C","S","P","2","3","16","self","P","other","immoral","0.5124","H","1","other"
"2027","20","male","R","Tra","C","S","P","2","3","17","self","Tra","self","moral","0.5365","J","1","self"
"2027","20","male","R","Tra","C","S","P","2","3","18","self","C","self","immoral","0.5246","J","1","self"
"2027","20","male","R","Tra","C","S","P","2","3","19","self","C","self","immoral","0.4567","J","1","self"
"2027","20","male","R","Tra","C","S","P","2","3","20","self","C","self","immoral","0.6029","J","1","self"
"2027","20","male","R","Tra","C","S","P","2","3","21","self","S","other","moral","0.5251","H","1","other"
"2027","20","male","R","Tra","C","S","P","2","3","22","self","P","other","immoral","0.4352","H","1","other"
"2027","20","male","R","Tra","C","S","P","2","3","23","self","S","other","moral","0.4394","H","1","other"
"2027","20","male","R","Tra","C","S","P","2","3","24","self","C","self","immoral","0.3736","J","1","self"
"2027","20","male","R","Tra","C","S","P","2","4","1","self","Tra","self","moral","0.6124","J","1","self"
"2027","20","male","R","Tra","C","S","P","2","4","2","self","C","self","immoral","0.5365","J","1","self"
"2027","20","male","R","Tra","C","S","P","2","4","3","self","Tra","self","moral","0.5187","J","1","self"
"2027","20","male","R","Tra","C","S","P","2","4","4","self","Tra","self","moral","0.4769","J","1","self"
"2027","20","male","R","Tra","C","S","P","2","4","5","self","P","other","immoral","0.4091","H","1","other"
"2027","20","male","R","Tra","C","S","P","2","4","6","self","Tra","self","moral","0.4733","J","1","self"
"2027","20","male","R","Tra","C","S","P","2","4","7","self","P","other","immoral","0.4373","H","1","other"
"2027","20","male","R","Tra","C","S","P","2","4","8","self","Tra","self","moral","0.3236","H","0","self"
"2027","20","male","R","Tra","C","S","P","2","4","9","self","S","other","moral","0.5457","H","1","other"
"2027","20","male","R","Tra","C","S","P","2","4","10","self","S","other","moral","0.4738","H","1","other"
"2027","20","male","R","Tra","C","S","P","2","4","11","self","S","other","moral","0.4360","H","1","other"
"2027","20","male","R","Tra","C","S","P","2","4","12","self","C","self","immoral","0.3922","J","1","self"
"2027","20","male","R","Tra","C","S","P","2","4","13","self","S","other","moral","0.5723","H","1","other"
"2027","20","male","R","Tra","C","S","P","2","4","14","self","P","other","immoral","0.7564","H","1","other"
"2027","20","male","R","Tra","C","S","P","2","4","15","self","Tra","self","moral","0.5166","J","1","self"
"2027","20","male","R","Tra","C","S","P","2","4","16","self","P","other","immoral","0.4888","H","1","other"
"2027","20","male","R","Tra","C","S","P","2","4","17","self","C","self","immoral","0.4249","J","1","self"
"2027","20","male","R","Tra","C","S","P","2","4","18","self","C","self","immoral","0.4632","J","1","self"
"2027","20","male","R","Tra","C","S","P","2","4","19","self","S","other","moral","0.4973","H","1","other"
"2027","20","male","R","Tra","C","S","P","2","4","20","self","C","self","immoral","0.4394","J","1","self"
"2027","20","male","R","Tra","C","S","P","2","4","21","self","C","self","immoral","0.3157","J","1","self"
"2027","20","male","R","Tra","C","S","P","2","4","22","self","P","other","immoral","0.3817","H","1","other"
"2027","20","male","R","Tra","C","S","P","2","4","23","self","S","other","moral","0.4919","H","1","other"
"2027","20","male","R","Tra","C","S","P","2","4","24","self","P","other","immoral","0.5441","H","1","other"
"2027","20","male","R","Tra","C","S","P","2","5","1","self","Tra","self","moral","0.5222","J","1","self"
"2027","20","male","R","Tra","C","S","P","2","5","2","self","P","other","immoral","0.4404","H","1","other"
"2027","20","male","R","Tra","C","S","P","2","5","3","self","P","other","immoral","0.4325","H","1","other"
"2027","20","male","R","Tra","C","S","P","2","5","4","self","Tra","self","moral","0.5087","J","1","self"
"2027","20","male","R","Tra","C","S","P","2","5","5","self","P","other","immoral","0.5509","H","1","other"
"2027","20","male","R","Tra","C","S","P","2","5","6","self","S","other","moral","0.5612","H","1","other"
"2027","20","male","R","Tra","C","S","P","2","5","7","self","S","other","moral","0.4672","H","1","other"
"2027","20","male","R","Tra","C","S","P","2","5","8","self","C","self","immoral","0.4374","J","1","self"
"2027","20","male","R","Tra","C","S","P","2","5","9","self","C","self","immoral","0.3895","J","1","self"
"2027","20","male","R","Tra","C","S","P","2","5","10","self","S","other","moral","0.5038","H","1","other"
"2027","20","male","R","Tra","C","S","P","2","5","11","self","Tra","self","moral","0.3599","J","1","self"
"2027","20","male","R","Tra","C","S","P","2","5","12","self","C","self","immoral","0.3940","J","1","self"
"2027","20","male","R","Tra","C","S","P","2","5","13","self","P","other","immoral","0.4761","H","1","other"
"2027","20","male","R","Tra","C","S","P","2","5","14","self","P","other","immoral","0.4583","H","1","other"
"2027","20","male","R","Tra","C","S","P","2","5","15","self","C","self","immoral","0.4084","J","1","self"
"2027","20","male","R","Tra","C","S","P","2","5","16","self","C","self","immoral","0.4406","J","1","self"
"2027","20","male","R","Tra","C","S","P","2","5","17","self","Tra","self","moral","0.4329","J","1","self"
"2027","20","male","R","Tra","C","S","P","2","5","18","self","S","other","moral","0.4210","H","1","other"
"2027","20","male","R","Tra","C","S","P","2","5","19","self","S","other","moral","0.4611","H","1","other"
"2027","20","male","R","Tra","C","S","P","2","5","20","self","S","other","moral","0.4513","H","1","other"
"2027","20","male","R","Tra","C","S","P","2","5","21","self","Tra","self","moral","0.4934","J","1","self"
"2027","20","male","R","Tra","C","S","P","2","5","22","self","P","other","immoral","0.4537","H","1","other"
"2027","20","male","R","Tra","C","S","P","2","5","23","self","C","self","immoral","0.4458","J","1","self"
"2027","20","male","R","Tra","C","S","P","2","5","24","self","Tra","self","moral","0.5800","J","1","self"
"2027","20","male","R","Tra","C","S","P","2","6","1","self","S","other","moral","0.4982","H","1","other"
"2027","20","male","R","Tra","C","S","P","2","6","2","self","Tra","self","moral","0.5843","J","1","self"
"2027","20","male","R","Tra","C","S","P","2","6","3","self","S","other","moral","0.4064","H","1","other"
"2027","20","male","R","Tra","C","S","P","2","6","4","self","Tra","self","moral","0.6726","J","1","self"
"2027","20","male","R","Tra","C","S","P","2","6","5","self","C","self","immoral","0.4767","J","1","self"
"2027","20","male","R","Tra","C","S","P","2","6","6","self","P","other","immoral","0.4509","H","1","other"
"2027","20","male","R","Tra","C","S","P","2","6","7","self","S","other","moral","0.5010","H","1","other"
"2027","20","male","R","Tra","C","S","P","2","6","8","self","C","self","immoral","0.4152","J","1","self"
"2027","20","male","R","Tra","C","S","P","2","6","9","self","Tra","self","moral","0.3554","J","1","self"
"2027","20","male","R","Tra","C","S","P","2","6","10","self","Tra","self","moral","0.3756","J","1","self"
"2027","20","male","R","Tra","C","S","P","2","6","11","self","C","self","immoral","0.5957","J","1","self"
"2027","20","male","R","Tra","C","S","P","2","6","12","self","C","self","immoral","0.4239","J","1","self"
"2027","20","male","R","Tra","C","S","P","2","6","13","self","S","other","moral","0.4961","H","1","other"
"2027","20","male","R","Tra","C","S","P","2","6","14","self","Tra","self","moral","0.4681","J","1","self"
"2027","20","male","R","Tra","C","S","P","2","6","15","self","C","self","immoral","0.4963","J","1","self"
"2027","20","male","R","Tra","C","S","P","2","6","16","self","P","other","immoral","0.5405","H","1","other"
"2027","20","male","R","Tra","C","S","P","2","6","17","self","P","other","immoral","0.5206","H","1","other"
"2027","20","male","R","Tra","C","S","P","2","6","18","self","P","other","immoral","0.5007","H","1","other"
"2027","20","male","R","Tra","C","S","P","2","6","19","self","Tra","self","moral","0.4831","J","1","self"
"2027","20","male","R","Tra","C","S","P","2","6","20","self","C","self","immoral","0.4652","J","1","self"
"2027","20","male","R","Tra","C","S","P","2","6","21","self","P","other","immoral","0.4394","H","1","other"
"2027","20","male","R","Tra","C","S","P","2","6","22","self","S","other","moral","0.5275","H","1","other"
"2027","20","male","R","Tra","C","S","P","2","6","23","self","S","other","moral","0.4657","H","1","other"
"2027","20","male","R","Tra","C","S","P","2","6","24","self","P","other","immoral","0.5219","H","1","other"
"2027","20","male","R","Tra","C","S","P","3","1","1","moral","C","self","immoral","0.5997","Y","0","immoral"
"2027","20","male","R","Tra","C","S","P","3","1","2","moral","P","other","immoral","0.4799","U","1","immoral"
"2027","20","male","R","Tra","C","S","P","3","1","3","moral","P","other","immoral","0.3461","U","1","immoral"
"2027","20","male","R","Tra","C","S","P","3","1","4","moral","Tra","self","moral","0.5162","U","0","moral"
"2027","20","male","R","Tra","C","S","P","3","1","5","moral","Tra","self","moral","0.3123","U","0","moral"
"2027","20","male","R","Tra","C","S","P","3","1","6","moral","C","self","immoral","0.4626","Y","0","immoral"
"2027","20","male","R","Tra","C","S","P","3","1","7","moral","C","self","immoral","0.3787","Y","0","immoral"
"2027","20","male","R","Tra","C","S","P","3","1","8","moral","S","other","moral","0.6269","Y","1","moral"
"2027","20","male","R","Tra","C","S","P","3","1","9","moral","C","self","immoral","0.6391","U","1","immoral"
"2027","20","male","R","Tra","C","S","P","3","1","10","moral","P","other","immoral","0.8473","U","1","immoral"
"2027","20","male","R","Tra","C","S","P","3","1","11","moral","Tra","self","moral","0.4555","Y","1","moral"
"2027","20","male","R","Tra","C","S","P","3","1","12","moral","S","other","moral","0.5777","U","0","moral"
"2027","20","male","R","Tra","C","S","P","3","1","13","moral","Tra","self","moral","0.4677","Y","1","moral"
"2027","20","male","R","Tra","C","S","P","3","1","14","moral","S","other","moral","0.5159","U","0","moral"
"2027","20","male","R","Tra","C","S","P","3","1","15","moral","S","other","moral","0.7440","U","0","moral"
"2027","20","male","R","Tra","C","S","P","3","1","16","moral","P","other","immoral","0.9542","U","1","immoral"
"2027","20","male","R","Tra","C","S","P","3","1","17","moral","Tra","self","moral","0.5164","Y","1","moral"
"2027","20","male","R","Tra","C","S","P","3","1","18","moral","C","self","immoral","0.3185","U","1","immoral"
"2027","20","male","R","Tra","C","S","P","3","1","19","moral","Tra","self","moral","0.6046","Y","1","moral"
"2027","20","male","R","Tra","C","S","P","3","1","20","moral","P","other","immoral","0.4968","Y","0","immoral"
"2027","20","male","R","Tra","C","S","P","3","1","21","moral","C","self","immoral","0.6150","U","1","immoral"
"2027","20","male","R","Tra","C","S","P","3","1","22","moral","P","other","immoral","0.7891","U","1","immoral"
"2027","20","male","R","Tra","C","S","P","3","1","23","moral","S","other","moral","0.4415","Y","1","moral"
"2027","20","male","R","Tra","C","S","P","3","1","24","moral","S","other","moral","0.6035","U","0","moral"
"2027","20","male","R","Tra","C","S","P","3","2","1","moral","P","other","immoral","0.5517","U","1","immoral"
"2027","20","male","R","Tra","C","S","P","3","2","2","moral","P","other","immoral","0.3998","U","1","immoral"
"2027","20","male","R","Tra","C","S","P","3","2","3","moral","S","other","moral","0.3720","Y","1","moral"
"2027","20","male","R","Tra","C","S","P","3","2","4","moral","C","self","immoral","0.4501","U","1","immoral"
"2027","20","male","R","Tra","C","S","P","3","2","5","moral","S","other","moral","0.3924","Y","1","moral"
"2027","20","male","R","Tra","C","S","P","3","2","6","moral","P","other","immoral","0.3445","U","1","immoral"
"2027","20","male","R","Tra","C","S","P","3","2","7","moral","S","other","moral","0.3647","Y","1","moral"
"2027","20","male","R","Tra","C","S","P","3","2","8","moral","C","self","immoral","0.3828","U","1","immoral"
"2027","20","male","R","Tra","C","S","P","3","2","9","moral","S","other","moral","0.6389","Y","1","moral"
"2027","20","male","R","Tra","C","S","P","3","2","10","moral","Tra","self","moral","0.3391","Y","1","moral"
"2027","20","male","R","Tra","C","S","P","3","2","11","moral","C","self","immoral","0.6112","U","1","immoral"
"2027","20","male","R","Tra","C","S","P","3","2","12","moral","P","other","immoral","0.4474","U","1","immoral"
"2027","20","male","R","Tra","C","S","P","3","2","13","moral","C","self","immoral","0.4435","U","1","immoral"
"2027","20","male","R","Tra","C","S","P","3","2","14","moral","S","other","moral","0.5697","Y","1","moral"
"2027","20","male","R","Tra","C","S","P","3","2","15","moral","Tra","self","moral","0.3580","Y","1","moral"
"2027","20","male","R","Tra","C","S","P","3","2","16","moral","Tra","self","moral","0.2982","Y","1","moral"
"2027","20","male","R","Tra","C","S","P","3","2","17","moral","S","other","moral","0.7323","Y","1","moral"
"2027","20","male","R","Tra","C","S","P","3","2","18","moral","Tra","self","moral","0.3804","Y","1","moral"
"2027","20","male","R","Tra","C","S","P","3","2","19","moral","C","self","immoral","0.5387","U","1","immoral"
"2027","20","male","R","Tra","C","S","P","3","2","20","moral","C","self","immoral","0.3306","U","1","immoral"
"2027","20","male","R","Tra","C","S","P","3","2","21","moral","P","other","immoral","0.3830","U","1","immoral"
"2027","20","male","R","Tra","C","S","P","3","2","22","moral","Tra","self","moral","0.3870","Y","1","moral"
"2027","20","male","R","Tra","C","S","P","3","2","23","moral","Tra","self","moral","0.2913","Y","1","moral"
"2027","20","male","R","Tra","C","S","P","3","2","24","moral","P","other","immoral","0.4334","U","1","immoral"
"2027","20","male","R","Tra","C","S","P","3","3","1","moral","Tra","self","moral","0.3916","Y","1","moral"
"2027","20","male","R","Tra","C","S","P","3","3","2","moral","S","other","moral","0.3458","Y","1","moral"
"2027","20","male","R","Tra","C","S","P","3","3","3","moral","C","self","immoral","0.3999","U","1","immoral"
"2027","20","male","R","Tra","C","S","P","3","3","4","moral","Tra","self","moral","0.3941","Y","1","moral"
"2027","20","male","R","Tra","C","S","P","3","3","5","moral","C","self","immoral","0.4823","U","1","immoral"
"2027","20","male","R","Tra","C","S","P","3","3","6","moral","P","other","immoral","0.5223","U","1","immoral"
"2027","20","male","R","Tra","C","S","P","3","3","7","moral","P","other","immoral","0.5145","U","1","immoral"
"2027","20","male","R","Tra","C","S","P","3","3","8","moral","S","other","moral","0.3808","Y","1","moral"
"2027","20","male","R","Tra","C","S","P","3","3","9","moral","P","other","immoral","0.4569","U","1","immoral"
"2027","20","male","R","Tra","C","S","P","3","3","10","moral","C","self","immoral","0.4850","U","1","immoral"
"2027","20","male","R","Tra","C","S","P","3","3","11","moral","P","other","immoral","0.4231","U","1","immoral"
"2027","20","male","R","Tra","C","S","P","3","3","12","moral","C","self","immoral","0.4074","U","1","immoral"
"2027","20","male","R","Tra","C","S","P","3","3","13","moral","Tra","self","moral","0.3835","Y","1","moral"
"2027","20","male","R","Tra","C","S","P","3","3","14","moral","S","other","moral","0.3236","Y","1","moral"
"2027","20","male","R","Tra","C","S","P","3","3","15","moral","Tra","self","moral","0.3238","Y","1","moral"
"2027","20","male","R","Tra","C","S","P","3","3","16","moral","Tra","self","moral","0.2818","Y","1","moral"
"2027","20","male","R","Tra","C","S","P","3","3","17","moral","C","self","immoral","0.4781","U","1","immoral"
"2027","20","male","R","Tra","C","S","P","3","3","18","moral","S","other","moral","0.4223","Y","1","moral"
"2027","20","male","R","Tra","C","S","P","3","3","19","moral","C","self","immoral","0.3705","U","1","immoral"
"2027","20","male","R","Tra","C","S","P","3","3","20","moral","S","other","moral","0.4626","Y","1","moral"
"2027","20","male","R","Tra","C","S","P","3","3","21","moral","P","other","immoral","0.3848","U","1","immoral"
"2027","20","male","R","Tra","C","S","P","3","3","22","moral","Tra","self","moral","0.3810","Y","1","moral"
"2027","20","male","R","Tra","C","S","P","3","3","23","moral","P","other","immoral","0.4890","U","1","immoral"
"2027","20","male","R","Tra","C","S","P","3","3","24","moral","S","other","moral","0.4612","Y","1","moral"
"2027","20","male","R","Tra","C","S","P","3","4","1","moral","P","other","immoral","0.4114","U","1","immoral"
"2027","20","male","R","Tra","C","S","P","3","4","2","moral","S","other","moral","0.3336","Y","1","moral"
"2027","20","male","R","Tra","C","S","P","3","4","3","moral","C","self","immoral","0.3338","U","1","immoral"
"2027","20","male","R","Tra","C","S","P","3","4","4","moral","C","self","immoral","0.3679","U","1","immoral"
"2027","20","male","R","Tra","C","S","P","3","4","5","moral","Tra","self","moral","0.3281","Y","1","moral"
"2027","20","male","R","Tra","C","S","P","3","4","6","moral","Tra","self","moral","0.3322","Y","1","moral"
"2027","20","male","R","Tra","C","S","P","3","4","7","moral","P","other","immoral","0.3324","U","1","immoral"
"2027","20","male","R","Tra","C","S","P","3","4","8","moral","C","self","immoral","0.2846","U","1","immoral"
"2027","20","male","R","Tra","C","S","P","3","4","9","moral","S","other","moral","0.4748","Y","1","moral"
"2027","20","male","R","Tra","C","S","P","3","4","10","moral","P","other","immoral","0.3549","U","1","immoral"
"2027","20","male","R","Tra","C","S","P","3","4","11","moral","S","other","moral","0.3411","Y","1","moral"
"2027","20","male","R","Tra","C","S","P","3","4","12","moral","C","self","immoral","0.4232","U","1","immoral"
"2027","20","male","R","Tra","C","S","P","3","4","13","moral","Tra","self","moral","0.3234","Y","1","moral"
"2027","20","male","R","Tra","C","S","P","3","4","14","moral","C","self","immoral","0.3075","U","1","immoral"
"2027","20","male","R","Tra","C","S","P","3","4","15","moral","S","other","moral","0.2817","Y","1","moral"
"2027","20","male","R","Tra","C","S","P","3","4","16","moral","C","self","immoral","0.2639","U","1","immoral"
"2027","20","male","R","Tra","C","S","P","3","4","17","moral","P","other","immoral","0.4841","U","1","immoral"
"2027","20","male","R","Tra","C","S","P","3","4","18","moral","Tra","self","moral","0.3901","Y","1","moral"
"2027","20","male","R","Tra","C","S","P","3","4","19","moral","Tra","self","moral","0.4244","Y","1","moral"
"2027","20","male","R","Tra","C","S","P","3","4","20","moral","S","other","moral","0.5363","Y","1","moral"
"2027","20","male","R","Tra","C","S","P","3","4","21","moral","Tra","self","moral","0.4387","Y","1","moral"
"2027","20","male","R","Tra","C","S","P","3","4","22","moral","P","other","immoral","0.3468","U","1","immoral"
"2027","20","male","R","Tra","C","S","P","3","4","23","moral","P","other","immoral","0.4189","U","1","immoral"
"2027","20","male","R","Tra","C","S","P","3","4","24","moral","S","other","moral","0.3731","Y","1","moral"
"2027","20","male","R","Tra","C","S","P","3","5","1","moral","S","other","moral","0.3672","Y","1","moral"
"2027","20","male","R","Tra","C","S","P","3","5","2","moral","C","self","immoral","0.3374","U","1","immoral"
"2027","20","male","R","Tra","C","S","P","3","5","3","moral","Tra","self","moral","0.3416","Y","1","moral"
"2027","20","male","R","Tra","C","S","P","3","5","4","moral","P","other","immoral","0.5397","U","1","immoral"
"2027","20","male","R","Tra","C","S","P","3","5","5","moral","S","other","moral","0.4200","Y","1","moral"
"2027","20","male","R","Tra","C","S","P","3","5","6","moral","C","self","immoral","0.5421","U","1","immoral"
"2027","20","male","R","Tra","C","S","P","3","5","7","moral","Tra","self","moral","0.4842","Y","1","moral"
"2027","20","male","R","Tra","C","S","P","3","5","8","moral","S","other","moral","0.4224","Y","1","moral"
"2027","20","male","R","Tra","C","S","P","3","5","9","moral","C","self","immoral","0.4145","U","1","immoral"
"2027","20","male","R","Tra","C","S","P","3","5","10","moral","C","self","immoral","0.3847","U","1","immoral"
"2027","20","male","R","Tra","C","S","P","3","5","11","moral","S","other","moral","0.3728","Y","1","moral"
"2027","20","male","R","Tra","C","S","P","3","5","12","moral","P","other","immoral","0.5510","U","1","immoral"
"2027","20","male","R","Tra","C","S","P","3","5","13","moral","S","other","moral","0.4112","Y","1","moral"
"2027","20","male","R","Tra","C","S","P","3","5","14","moral","P","other","immoral","0.4373","U","1","immoral"
"2027","20","male","R","Tra","C","S","P","3","5","15","moral","C","self","immoral","0.3434","U","1","immoral"
"2027","20","male","R","Tra","C","S","P","3","5","16","moral","Tra","self","moral","0.4976","Y","1","moral"
"2027","20","male","R","Tra","C","S","P","3","5","17","moral","S","other","moral","0.3917","Y","1","moral"
"2027","20","male","R","Tra","C","S","P","3","5","18","moral","Tra","self","moral","0.4479","Y","1","moral"
"2027","20","male","R","Tra","C","S","P","3","5","19","moral","P","other","immoral","0.5421","U","1","immoral"
"2027","20","male","R","Tra","C","S","P","3","5","20","moral","P","other","immoral","0.4263","U","1","immoral"
"2027","20","male","R","Tra","C","S","P","3","5","21","moral","P","other","immoral","0.4204","U","1","immoral"
"2027","20","male","R","Tra","C","S","P","3","5","22","moral","Tra","self","moral","0.4066","Y","1","moral"
"2027","20","male","R","Tra","C","S","P","3","5","23","moral","C","self","immoral","0.4727","U","1","immoral"
"2027","20","male","R","Tra","C","S","P","3","5","24","moral","Tra","self","moral","0.4369","Y","1","moral"
"2027","20","male","R","Tra","C","S","P","3","6","1","moral","C","self","immoral","0.4251","U","1","immoral"
"2027","20","male","R","Tra","C","S","P","3","6","2","moral","Tra","self","moral","0.3872","Y","1","moral"
"2027","20","male","R","Tra","C","S","P","3","6","3","moral","P","other","immoral","0.3434","U","1","immoral"
"2027","20","male","R","Tra","C","S","P","3","6","4","moral","S","other","moral","0.3695","Y","1","moral"
"2027","20","male","R","Tra","C","S","P","3","6","5","moral","C","self","immoral","0.4437","U","1","immoral"
"2027","20","male","R","Tra","C","S","P","3","6","6","moral","C","self","immoral","0.4639","U","1","immoral"
"2027","20","male","R","Tra","C","S","P","3","6","7","moral","Tra","self","moral","0.4160","Y","1","moral"
"2027","20","male","R","Tra","C","S","P","3","6","8","moral","C","self","immoral","0.5362","U","1","immoral"
"2027","20","male","R","Tra","C","S","P","3","6","9","moral","S","other","moral","0.3745","Y","1","moral"
"2027","20","male","R","Tra","C","S","P","3","6","10","moral","Tra","self","moral","0.4145","Y","1","moral"
"2027","20","male","R","Tra","C","S","P","3","6","11","moral","P","other","immoral","0.3766","U","1","immoral"
"2027","20","male","R","Tra","C","S","P","3","6","12","moral","P","other","immoral","0.4548","U","1","immoral"
"2027","20","male","R","Tra","C","S","P","3","6","13","moral","Tra","self","moral","0.3929","Y","1","moral"
"2027","20","male","R","Tra","C","S","P","3","6","14","moral","S","other","moral","0.4031","Y","1","moral"
"2027","20","male","R","Tra","C","S","P","3","6","15","moral","P","other","immoral","0.3653","U","1","immoral"
"2027","20","male","R","Tra","C","S","P","3","6","16","moral","S","other","moral","0.3534","Y","1","moral"
"2027","20","male","R","Tra","C","S","P","3","6","17","moral","Tra","self","moral","0.4477","Y","1","moral"
"2027","20","male","R","Tra","C","S","P","3","6","18","moral","C","self","immoral","0.3778","U","1","immoral"
"2027","20","male","R","Tra","C","S","P","3","6","19","moral","C","self","immoral","0.3680","U","1","immoral"
"2027","20","male","R","Tra","C","S","P","3","6","20","moral","P","other","immoral","0.5401","U","1","immoral"
"2027","20","male","R","Tra","C","S","P","3","6","21","moral","S","other","moral","0.4381","Y","1","moral"
"2027","20","male","R","Tra","C","S","P","3","6","22","moral","Tra","self","moral","0.3264","Y","1","moral"
"2027","20","male","R","Tra","C","S","P","3","6","23","moral","S","other","moral","0.3747","Y","1","moral"
"2027","20","male","R","Tra","C","S","P","3","6","24","moral","P","other","immoral","0.3408","U","1","immoral"
"2027","20","male","R","Tra","C","S","P","4","1","1","self","C","self","immoral","0.5886","J","1","self"
"2027","20","male","R","Tra","C","S","P","4","1","2","self","C","self","immoral","0.4370","J","1","self"
"2027","20","male","R","Tra","C","S","P","4","1","3","self","S","other","moral","0.6111","H","1","other"
"2027","20","male","R","Tra","C","S","P","4","1","4","self","Tra","self","moral","0.6972","J","1","self"
"2027","20","male","R","Tra","C","S","P","4","1","5","self","Tra","self","moral","0.5754","J","1","self"
"2027","20","male","R","Tra","C","S","P","4","1","6","self","S","other","moral","0.5835","H","1","other"
"2027","20","male","R","Tra","C","S","P","4","1","7","self","S","other","moral","0.3637","H","1","other"
"2027","20","male","R","Tra","C","S","P","4","1","8","self","S","other","moral","0.3499","H","1","other"
"2027","20","male","R","Tra","C","S","P","4","1","9","self","Tra","self","moral","0.6620","J","1","self"
"2027","20","male","R","Tra","C","S","P","4","1","10","self","P","other","immoral","0.6723","H","1","other"
"2027","20","male","R","Tra","C","S","P","4","1","11","self","S","other","moral","0.4724","H","1","other"
"2027","20","male","R","Tra","C","S","P","4","1","12","self","S","other","moral","0.4586","H","1","other"
"2027","20","male","R","Tra","C","S","P","4","1","13","self","P","other","immoral","0.4327","H","1","other"
"2027","20","male","R","Tra","C","S","P","4","1","14","self","P","other","immoral","0.3850","H","1","other"
"2027","20","male","R","Tra","C","S","P","4","1","15","self","P","other","immoral","0.3569","H","1","other"
"2027","20","male","R","Tra","C","S","P","4","1","16","self","C","self","immoral","0.4192","J","1","self"
"2027","20","male","R","Tra","C","S","P","4","1","17","self","P","other","immoral","0.4374","H","1","other"
"2027","20","male","R","Tra","C","S","P","4","1","18","self","P","other","immoral","0.5015","H","1","other"
"2027","20","male","R","Tra","C","S","P","4","1","19","self","Tra","self","moral","0.5217","J","1","self"
"2027","20","male","R","Tra","C","S","P","4","1","20","self","C","self","immoral","0.4378","J","1","self"
"2027","20","male","R","Tra","C","S","P","4","1","21","self","C","self","immoral","0.3280","J","1","self"
"2027","20","male","R","Tra","C","S","P","4","1","22","self","Tra","self","moral","0.3202","J","1","self"
"2027","20","male","R","Tra","C","S","P","4","1","23","self","Tra","self","moral","0.3223","J","1","self"
"2027","20","male","R","Tra","C","S","P","4","1","24","self","C","self","immoral","0.3604","J","1","self"
"2027","20","male","R","Tra","C","S","P","4","2","1","self","Tra","self","moral","0.4247","J","1","self"
"2027","20","male","R","Tra","C","S","P","4","2","2","self","Tra","self","moral","0.3648","J","1","self"
"2027","20","male","R","Tra","C","S","P","4","2","3","self","C","self","immoral","0.3769","J","1","self"
"2027","20","male","R","Tra","C","S","P","4","2","4","self","S","other","moral","0.5091","H","1","other"
"2027","20","male","R","Tra","C","S","P","4","2","5","self","P","other","immoral","0.4432","H","1","other"
"2027","20","male","R","Tra","C","S","P","4","2","6","self","Tra","self","moral","0.6234","J","1","self"
"2027","20","male","R","Tra","C","S","P","4","2","7","self","C","self","immoral","0.4056","J","1","self"
"2027","20","male","R","Tra","C","S","P","4","2","8","self","S","other","moral","0.5497","H","1","other"
"2027","20","male","R","Tra","C","S","P","4","2","9","self","P","other","immoral","0.4319","H","1","other"
"2027","20","male","R","Tra","C","S","P","4","2","10","self","S","other","moral","0.5681","H","1","other"
"2027","20","male","R","Tra","C","S","P","4","2","11","self","Tra","self","moral","0.4503","J","1","self"
"2027","20","male","R","Tra","C","S","P","4","2","12","self","S","other","moral","0.4543","H","1","other"
"2027","20","male","R","Tra","C","S","P","4","2","13","self","C","self","immoral","0.4786","J","1","self"
"2027","20","male","R","Tra","C","S","P","4","2","14","self","Tra","self","moral","0.4447","J","1","self"
"2027","20","male","R","Tra","C","S","P","4","2","15","self","P","other","immoral","0.4469","H","1","other"
"2027","20","male","R","Tra","C","S","P","4","2","16","self","C","self","immoral","0.4530","J","1","self"
"2027","20","male","R","Tra","C","S","P","4","2","17","self","Tra","self","moral","0.4831","J","1","self"
"2027","20","male","R","Tra","C","S","P","4","2","18","self","C","self","immoral","0.3673","J","1","self"
"2027","20","male","R","Tra","C","S","P","4","2","19","self","C","self","immoral","0.3615","J","1","self"
"2027","20","male","R","Tra","C","S","P","4","2","20","self","S","other","moral","0.4755","H","1","other"
"2027","20","male","R","Tra","C","S","P","4","2","21","self","P","other","immoral","0.4818","H","1","other"
"2027","20","male","R","Tra","C","S","P","4","2","22","self","P","other","immoral","0.3340","H","1","other"
"2027","20","male","R","Tra","C","S","P","4","2","23","self","S","other","moral","0.5001","H","1","other"
"2027","20","male","R","Tra","C","S","P","4","2","24","self","P","other","immoral","0.4883","H","1","other"
"2027","20","male","R","Tra","C","S","P","4","3","1","self","C","self","immoral","0.4644","J","1","self"
"2027","20","male","R","Tra","C","S","P","4","3","2","self","P","other","immoral","0.4805","H","1","other"
"2027","20","male","R","Tra","C","S","P","4","3","3","self","S","other","moral","0.5507","H","1","other"
"2027","20","male","R","Tra","C","S","P","4","3","4","self","P","other","immoral","0.4349","H","1","other"
"2027","20","male","R","Tra","C","S","P","4","3","5","self","S","other","moral","0.4611","H","1","other"
"2027","20","male","R","Tra","C","S","P","4","3","6","self","Tra","self","moral","0.5732","J","1","self"
"2027","20","male","R","Tra","C","S","P","4","3","7","self","S","other","moral","0.4454","H","1","other"
"2027","20","male","R","Tra","C","S","P","4","3","8","self","C","self","immoral","0.3935","J","1","self"
"2027","20","male","R","Tra","C","S","P","4","3","9","self","Tra","self","moral","0.3677","J","1","self"
"2027","20","male","R","Tra","C","S","P","4","3","10","self","S","other","moral","0.4739","H","1","other"
"2027","20","male","R","Tra","C","S","P","4","3","11","self","Tra","self","moral","0.5700","J","1","self"
"2027","20","male","R","Tra","C","S","P","4","3","12","self","Tra","self","moral","0.3782","J","1","self"
"2027","20","male","R","Tra","C","S","P","4","3","13","self","Tra","self","moral","0.3043","J","1","self"
"2027","20","male","R","Tra","C","S","P","4","3","14","self","C","self","immoral","0.5085","J","1","self"
"2027","20","male","R","Tra","C","S","P","4","3","15","self","P","other","immoral","0.5387","H","1","other"
"2027","20","male","R","Tra","C","S","P","4","3","16","self","P","other","immoral","0.4628","H","1","other"
"2027","20","male","R","Tra","C","S","P","4","3","17","self","Tra","self","moral","0.7269","J","1","self"
"2027","20","male","R","Tra","C","S","P","4","3","18","self","S","other","moral","0.5011","H","1","other"
"2027","20","male","R","Tra","C","S","P","4","3","19","self","C","self","immoral","0.4733","J","1","self"
"2027","20","male","R","Tra","C","S","P","4","3","20","self","S","other","moral","0.5315","H","1","other"
"2027","20","male","R","Tra","C","S","P","4","3","21","self","C","self","immoral","0.4016","J","1","self"
"2027","20","male","R","Tra","C","S","P","4","3","22","self","P","other","immoral","0.5177","H","1","other"
"2027","20","male","R","Tra","C","S","P","4","3","23","self","P","other","immoral","0.3799","J","0","other"
"2027","20","male","R","Tra","C","S","P","4","3","24","self","C","self","immoral","0.3881","J","1","self"
"2027","20","male","R","Tra","C","S","P","4","4","1","self","Tra","self","moral","0.5452","J","1","self"
"2027","20","male","R","Tra","C","S","P","4","4","2","self","C","self","immoral","0.4093","J","1","self"
"2027","20","male","R","Tra","C","S","P","4","4","3","self","P","other","immoral","0.4455","H","1","other"
"2027","20","male","R","Tra","C","S","P","4","4","4","self","C","self","immoral","0.3436","J","1","self"
"2027","20","male","R","Tra","C","S","P","4","4","5","self","C","self","immoral","0.3459","J","1","self"
"2027","20","male","R","Tra","C","S","P","4","4","6","self","C","self","immoral","0.3380","J","1","self"
"2027","20","male","R","Tra","C","S","P","4","4","7","self","S","other","moral","0.4602","H","1","other"
"2027","20","male","R","Tra","C","S","P","4","4","8","self","P","other","immoral","0.3743","H","1","other"
"2027","20","male","R","Tra","C","S","P","4","4","9","self","P","other","immoral","0.3685","H","1","other"
"2027","20","male","R","Tra","C","S","P","4","4","10","self","Tra","self","moral","0.3947","J","1","self"
"2027","20","male","R","Tra","C","S","P","4","4","11","self","P","other","immoral","0.4129","H","1","other"
"2027","20","male","R","Tra","C","S","P","4","4","12","self","Tra","self","moral","0.4550","J","1","self"
"2027","20","male","R","Tra","C","S","P","4","4","13","self","Tra","self","moral","0.7072","J","1","self"
"2027","20","male","R","Tra","C","S","P","4","4","14","self","C","self","immoral","0.5633","J","1","self"
"2027","20","male","R","Tra","C","S","P","4","4","15","self","S","other","moral","0.4635","H","1","other"
"2027","20","male","R","Tra","C","S","P","4","4","16","self","P","other","immoral","0.4697","H","1","other"
"2027","20","male","R","Tra","C","S","P","4","4","17","self","C","self","immoral","0.4659","J","1","self"
"2027","20","male","R","Tra","C","S","P","4","4","18","self","S","other","moral","0.4160","H","1","other"
"2027","20","male","R","Tra","C","S","P","4","4","19","self","S","other","moral","0.4143","H","1","other"
"2027","20","male","R","Tra","C","S","P","4","4","20","self","Tra","self","moral","0.4563","J","1","self"
"2027","20","male","R","Tra","C","S","P","4","4","21","self","S","other","moral","0.4704","H","1","other"
"2027","20","male","R","Tra","C","S","P","4","4","22","self","S","other","moral","0.4986","H","1","other"
"2027","20","male","R","Tra","C","S","P","4","4","23","self","Tra","self","moral","0.4669","J","1","self"
"2027","20","male","R","Tra","C","S","P","4","4","24","self","P","other","immoral","0.4890","H","1","other"
"2027","20","male","R","Tra","C","S","P","4","5","1","self","P","other","immoral","0.5250","H","1","other"
"2027","20","male","R","Tra","C","S","P","4","5","2","self","Tra","self","moral","0.3553","J","1","self"
"2027","20","male","R","Tra","C","S","P","4","5","3","self","Tra","self","moral","0.3935","J","1","self"
"2027","20","male","R","Tra","C","S","P","4","5","4","self","S","other","moral","0.4496","H","1","other"
"2027","20","male","R","Tra","C","S","P","4","5","5","self","C","self","immoral","0.4637","J","1","self"
"2027","20","male","R","Tra","C","S","P","4","5","6","self","C","self","immoral","0.4318","J","1","self"
"2027","20","male","R","Tra","C","S","P","4","5","7","self","S","other","moral","0.3241","H","1","other"
"2027","20","male","R","Tra","C","S","P","4","5","8","self","P","other","immoral","0.6542","H","1","other"
"2027","20","male","R","Tra","C","S","P","4","5","9","self","Tra","self","moral","0.4444","J","1","self"
"2027","20","male","R","Tra","C","S","P","4","5","10","self","S","other","moral","0.4205","H","1","other"
"2027","20","male","R","Tra","C","S","P","4","5","11","self","C","self","immoral","0.4267","J","1","self"
"2027","20","male","R","Tra","C","S","P","4","5","12","self","P","other","immoral","0.4648","H","1","other"
"2027","20","male","R","Tra","C","S","P","4","5","13","self","C","self","immoral","0.4690","J","1","self"
"2027","20","male","R","Tra","C","S","P","4","5","14","self","S","other","moral","0.4051","H","1","other"
"2027","20","male","R","Tra","C","S","P","4","5","15","self","C","self","immoral","0.4812","J","1","self"
"2027","20","male","R","Tra","C","S","P","4","5","16","self","S","other","moral","0.3835","H","1","other"
"2027","20","male","R","Tra","C","S","P","4","5","17","self","C","self","immoral","0.4597","J","1","self"
"2027","20","male","R","Tra","C","S","P","4","5","18","self","Tra","self","moral","0.4378","J","1","self"
"2027","20","male","R","Tra","C","S","P","4","5","19","self","S","other","moral","0.4099","H","1","other"
"2027","20","male","R","Tra","C","S","P","4","5","20","self","P","other","immoral","0.8539","H","1","other"
"2027","20","male","R","Tra","C","S","P","4","5","21","self","P","other","immoral","0.5143","H","1","other"
"2027","20","male","R","Tra","C","S","P","4","5","22","self","Tra","self","moral","0.4223","J","1","self"
"2027","20","male","R","Tra","C","S","P","4","5","23","self","P","other","immoral","0.4086","H","1","other"
"2027","20","male","R","Tra","C","S","P","4","5","24","self","Tra","self","moral","0.3588","J","1","self"
"2027","20","male","R","Tra","C","S","P","4","6","1","self","P","other","immoral","0.3969","H","1","other"
"2027","20","male","R","Tra","C","S","P","4","6","2","self","Tra","self","moral","0.4611","J","1","self"
"2027","20","male","R","Tra","C","S","P","4","6","3","self","Tra","self","moral","0.3972","J","1","self"
"2027","20","male","R","Tra","C","S","P","4","6","4","self","P","other","immoral","0.3812","H","1","other"
"2027","20","male","R","Tra","C","S","P","4","6","5","self","P","other","immoral","0.6315","H","1","other"
"2027","20","male","R","Tra","C","S","P","4","6","6","self","S","other","moral","0.4776","H","1","other"
"2027","20","male","R","Tra","C","S","P","4","6","7","self","C","self","immoral","0.3499","J","1","self"
"2027","20","male","R","Tra","C","S","P","4","6","8","self","S","other","moral","0.3180","H","1","other"
"2027","20","male","R","Tra","C","S","P","4","6","9","self","Tra","self","moral","0.4602","J","1","self"
"2027","20","male","R","Tra","C","S","P","4","6","10","self","P","other","immoral","0.3063","H","1","other"
"2027","20","male","R","Tra","C","S","P","4","6","11","self","S","other","moral","0.4965","H","1","other"
"2027","20","male","R","Tra","C","S","P","4","6","12","self","P","other","immoral","0.5566","H","1","other"
"2027","20","male","R","Tra","C","S","P","4","6","13","self","S","other","moral","0.5427","H","1","other"
"2027","20","male","R","Tra","C","S","P","4","6","14","self","S","other","moral","0.4689","H","1","other"
"2027","20","male","R","Tra","C","S","P","4","6","15","self","S","other","moral","0.4371","H","1","other"
"2027","20","male","R","Tra","C","S","P","4","6","16","self","C","self","immoral","0.4172","J","1","self"
"2027","20","male","R","Tra","C","S","P","4","6","17","self","C","self","immoral","0.3713","J","1","self"
"2027","20","male","R","Tra","C","S","P","4","6","18","self","P","other","immoral","0.4075","H","1","other"
"2027","20","male","R","Tra","C","S","P","4","6","19","self","C","self","immoral","0.7678","J","1","self"
"2027","20","male","R","Tra","C","S","P","4","6","20","self","C","self","immoral","0.4259","J","1","self"
"2027","20","male","R","Tra","C","S","P","4","6","21","self","Tra","self","moral","0.6261","J","1","self"
"2027","20","male","R","Tra","C","S","P","4","6","22","self","C","self","immoral","0.5122","J","1","self"
"2027","20","male","R","Tra","C","S","P","4","6","23","self","Tra","self","moral","0.4644","J","1","self"
"2027","20","male","R","Tra","C","S","P","4","6","24","self","Tra","self","moral","0.6045","J","1","self"
"2027","20","male","R","Tra","C","S","P","5","1","1","moral","P","other","immoral","0.5017","U","1","immoral"
"2027","20","male","R","Tra","C","S","P","5","1","2","moral","P","other","immoral","0.3479","U","1","immoral"
"2027","20","male","R","Tra","C","S","P","5","1","3","moral","C","self","immoral","0.5559","U","1","immoral"
"2027","20","male","R","Tra","C","S","P","5","1","4","moral","Tra","self","moral","0.4742","Y","1","moral"
"2027","20","male","R","Tra","C","S","P","5","1","5","moral","C","self","immoral","0.3643","U","1","immoral"
"2027","20","male","R","Tra","C","S","P","5","1","6","moral","P","other","immoral","0.4805","U","1","immoral"
"2027","20","male","R","Tra","C","S","P","5","1","7","moral","C","self","immoral","0.3267","U","1","immoral"
"2027","20","male","R","Tra","C","S","P","5","1","8","moral","Tra","self","moral","0.5388","Y","1","moral"
"2027","20","male","R","Tra","C","S","P","5","1","9","moral","Tra","self","moral","0.3411","Y","1","moral"
"2027","20","male","R","Tra","C","S","P","5","1","10","moral","Tra","self","moral","0.3692","Y","1","moral"
"2027","20","male","R","Tra","C","S","P","5","1","11","moral","S","other","moral","0.4613","Y","1","moral"
"2027","20","male","R","Tra","C","S","P","5","1","12","moral","C","self","immoral","0.3314","U","1","immoral"
"2027","20","male","R","Tra","C","S","P","5","1","13","moral","P","other","immoral","0.3936","U","1","immoral"
"2027","20","male","R","Tra","C","S","P","5","1","14","moral","S","other","moral","0.3597","Y","1","moral"
"2027","20","male","R","Tra","C","S","P","5","1","15","moral","S","other","moral","0.3579","Y","1","moral"
"2027","20","male","R","Tra","C","S","P","5","1","16","moral","Tra","self","moral","0.3661","Y","1","moral"
"2027","20","male","R","Tra","C","S","P","5","1","17","moral","S","other","moral","0.3543","Y","1","moral"
"2027","20","male","R","Tra","C","S","P","5","1","18","moral","Tra","self","moral","0.3664","Y","1","moral"
"2027","20","male","R","Tra","C","S","P","5","1","19","moral","P","other","immoral","0.4227","U","1","immoral"
"2027","20","male","R","Tra","C","S","P","5","1","20","moral","S","other","moral","0.4368","Y","1","moral"
"2027","20","male","R","Tra","C","S","P","5","1","21","moral","C","self","immoral","0.3410","U","1","immoral"
"2027","20","male","R","Tra","C","S","P","5","1","22","moral","P","other","immoral","0.4032","U","1","immoral"
"2027","20","male","R","Tra","C","S","P","5","1","23","moral","S","other","moral","0.5392","Y","1","moral"
"2027","20","male","R","Tra","C","S","P","5","1","24","moral","C","self","immoral","0.5454","U","1","immoral"
"2027","20","male","R","Tra","C","S","P","5","2","1","moral","C","self","immoral","0.6195","U","1","immoral"
"2027","20","male","R","Tra","C","S","P","5","2","2","moral","P","other","immoral","0.5397","U","1","immoral"
"2027","20","male","R","Tra","C","S","P","5","2","3","moral","S","other","moral","0.4118","Y","1","moral"
"2027","20","male","R","Tra","C","S","P","5","2","4","moral","S","other","moral","0.3400","Y","1","moral"
"2027","20","male","R","Tra","C","S","P","5","2","5","moral","P","other","immoral","0.5222","U","1","immoral"
"2027","20","male","R","Tra","C","S","P","5","2","6","moral","S","other","moral","0.3904","Y","1","moral"
"2027","20","male","R","Tra","C","S","P","5","2","7","moral","C","self","immoral","0.3325","U","1","immoral"
"2027","20","male","R","Tra","C","S","P","5","2","8","moral","C","self","immoral","0.4746","U","1","immoral"
"2027","20","male","R","Tra","C","S","P","5","2","9","moral","Tra","self","moral","0.4568","Y","1","moral"
"2027","20","male","R","Tra","C","S","P","5","2","10","moral","P","other","immoral","0.3269","U","1","immoral"
"2027","20","male","R","Tra","C","S","P","5","2","11","moral","Tra","self","moral","0.3092","Y","1","moral"
"2027","20","male","R","Tra","C","S","P","5","2","12","moral","P","other","immoral","0.3534","U","1","immoral"
"2027","20","male","R","Tra","C","S","P","5","2","13","moral","Tra","self","moral","0.3815","Y","1","moral"
"2027","20","male","R","Tra","C","S","P","5","2","14","moral","C","self","immoral","0.3776","U","1","immoral"
"2027","20","male","R","Tra","C","S","P","5","2","15","moral","P","other","immoral","0.3998","U","1","immoral"
"2027","20","male","R","Tra","C","S","P","5","2","16","moral","S","other","moral","0.7080","Y","1","moral"
"2027","20","male","R","Tra","C","S","P","5","2","17","moral","S","other","moral","0.4141","Y","1","moral"
"2027","20","male","R","Tra","C","S","P","5","2","18","moral","Tra","self","moral","0.4342","Y","1","moral"
"2027","20","male","R","Tra","C","S","P","5","2","19","moral","Tra","self","moral","0.3305","Y","1","moral"
"2027","20","male","R","Tra","C","S","P","5","2","20","moral","P","other","immoral","0.4486","U","1","immoral"
"2027","20","male","R","Tra","C","S","P","5","2","21","moral","S","other","moral","0.3507","Y","1","moral"
"2027","20","male","R","Tra","C","S","P","5","2","22","moral","C","self","immoral","0.3490","U","1","immoral"
"2027","20","male","R","Tra","C","S","P","5","2","23","moral","C","self","immoral","0.3811","U","1","immoral"
"2027","20","male","R","Tra","C","S","P","5","2","24","moral","Tra","self","moral","0.3552","Y","1","moral"
"2027","20","male","R","Tra","C","S","P","5","3","1","moral","S","other","moral","0.4274","Y","1","moral"
"2027","20","male","R","Tra","C","S","P","5","3","2","moral","S","other","moral","0.3156","Y","1","moral"
"2027","20","male","R","Tra","C","S","P","5","3","3","moral","S","other","moral","0.3497","Y","1","moral"
"2027","20","male","R","Tra","C","S","P","5","3","4","moral","Tra","self","moral","0.4698","U","0","moral"
"2027","20","male","R","Tra","C","S","P","5","3","5","moral","Tra","self","moral","0.3600","Y","1","moral"
"2027","20","male","R","Tra","C","S","P","5","3","6","moral","P","other","immoral","0.3741","U","1","immoral"
"2027","20","male","R","Tra","C","S","P","5","3","7","moral","P","other","immoral","0.3823","U","1","immoral"
"2027","20","male","R","Tra","C","S","P","5","3","8","moral","C","self","immoral","0.6265","U","1","immoral"
"2027","20","male","R","Tra","C","S","P","5","3","9","moral","P","other","immoral","0.4186","U","1","immoral"
"2027","20","male","R","Tra","C","S","P","5","3","10","moral","C","self","immoral","0.4668","U","1","immoral"
"2027","20","male","R","Tra","C","S","P","5","3","11","moral","P","other","immoral","0.3129","U","1","immoral"
"2027","20","male","R","Tra","C","S","P","5","3","12","moral","P","other","immoral","0.2911","U","1","immoral"
"2027","20","male","R","Tra","C","S","P","5","3","13","moral","Tra","self","moral","0.4012","Y","1","moral"
"2027","20","male","R","Tra","C","S","P","5","3","14","moral","S","other","moral","0.3114","Y","1","moral"
"2027","20","male","R","Tra","C","S","P","5","3","15","moral","S","other","moral","0.3616","Y","1","moral"
"2027","20","male","R","Tra","C","S","P","5","3","16","moral","Tra","self","moral","0.3477","Y","1","moral"
"2027","20","male","R","Tra","C","S","P","5","3","17","moral","C","self","immoral","0.3660","U","1","immoral"
"2027","20","male","R","Tra","C","S","P","5","3","18","moral","Tra","self","moral","0.2800","Y","1","moral"
"2027","20","male","R","Tra","C","S","P","5","3","19","moral","S","other","moral","0.3163","Y","1","moral"
"2027","20","male","R","Tra","C","S","P","5","3","20","moral","P","other","immoral","0.3524","U","1","immoral"
"2027","20","male","R","Tra","C","S","P","5","3","21","moral","C","self","immoral","0.4266","U","1","immoral"
"2027","20","male","R","Tra","C","S","P","5","3","22","moral","Tra","self","moral","0.2726","Y","1","moral"
"2027","20","male","R","Tra","C","S","P","5","3","23","moral","C","self","immoral","0.4690","U","1","immoral"
"2027","20","male","R","Tra","C","S","P","5","3","24","moral","C","self","immoral","0.5850","U","1","immoral"
"2027","20","male","R","Tra","C","S","P","5","4","1","moral","C","self","immoral","0.4608","U","1","immoral"
"2027","20","male","R","Tra","C","S","P","5","4","2","moral","S","other","moral","0.3489","Y","1","moral"
"2027","20","male","R","Tra","C","S","P","5","4","3","moral","P","other","immoral","0.3031","U","1","immoral"
"2027","20","male","R","Tra","C","S","P","5","4","4","moral","P","other","immoral","0.3152","U","1","immoral"
"2027","20","male","R","Tra","C","S","P","5","4","5","moral","C","self","immoral","0.3954","U","1","immoral"
"2027","20","male","R","Tra","C","S","P","5","4","6","moral","Tra","self","moral","0.3976","Y","1","moral"
"2027","20","male","R","Tra","C","S","P","5","4","7","moral","Tra","self","moral","0.2941","Y","1","moral"
"2027","20","male","R","Tra","C","S","P","5","4","8","moral","S","other","moral","0.3859","Y","1","moral"
"2027","20","male","R","Tra","C","S","P","5","4","9","moral","C","self","immoral","0.3201","U","1","immoral"
"2027","20","male","R","Tra","C","S","P","5","4","10","moral","P","other","immoral","0.3842","U","1","immoral"
"2027","20","male","R","Tra","C","S","P","5","4","11","moral","S","other","moral","0.3784","Y","1","moral"
"2027","20","male","R","Tra","C","S","P","5","4","12","moral","Tra","self","moral","0.3765","Y","1","moral"
"2027","20","male","R","Tra","C","S","P","5","4","13","moral","S","other","moral","0.3347","Y","1","moral"
"2027","20","male","R","Tra","C","S","P","5","4","14","moral","Tra","self","moral","0.4069","Y","1","moral"
"2027","20","male","R","Tra","C","S","P","5","4","15","moral","C","self","immoral","0.3451","U","1","immoral"
"2027","20","male","R","Tra","C","S","P","5","4","16","moral","P","other","immoral","0.4252","U","1","immoral"
"2027","20","male","R","Tra","C","S","P","5","4","17","moral","P","other","immoral","0.3494","U","1","immoral"
"2027","20","male","R","Tra","C","S","P","5","4","18","moral","Tra","self","moral","0.3935","Y","1","moral"
"2027","20","male","R","Tra","C","S","P","5","4","19","moral","P","other","immoral","0.4058","U","1","immoral"
"2027","20","male","R","Tra","C","S","P","5","4","20","moral","C","self","immoral","0.4100","U","1","immoral"
"2027","20","male","R","Tra","C","S","P","5","4","21","moral","S","other","moral","0.3400","Y","1","moral"
"2027","20","male","R","Tra","C","S","P","5","4","22","moral","C","self","immoral","0.4341","U","1","immoral"
"2027","20","male","R","Tra","C","S","P","5","4","23","moral","Tra","self","moral","0.3264","Y","1","moral"
"2027","20","male","R","Tra","C","S","P","5","4","24","moral","S","other","moral","0.3445","Y","1","moral"
"2027","20","male","R","Tra","C","S","P","5","5","1","moral","S","other","moral","0.3107","Y","1","moral"
"2027","20","male","R","Tra","C","S","P","5","5","2","moral","C","self","immoral","0.3948","U","1","immoral"
"2027","20","male","R","Tra","C","S","P","5","5","3","moral","P","other","immoral","0.5610","U","1","immoral"
"2027","20","male","R","Tra","C","S","P","5","5","4","moral","C","self","immoral","0.3891","U","1","immoral"
"2027","20","male","R","Tra","C","S","P","5","5","5","moral","Tra","self","moral","0.4074","Y","1","moral"
"2027","20","male","R","Tra","C","S","P","5","5","6","moral","C","self","immoral","0.4595","U","1","immoral"
"2027","20","male","R","Tra","C","S","P","5","5","7","moral","P","other","immoral","0.4176","U","1","immoral"
"2027","20","male","R","Tra","C","S","P","5","5","8","moral","C","self","immoral","0.5378","U","1","immoral"
"2027","20","male","R","Tra","C","S","P","5","5","9","moral","Tra","self","moral","0.5778","Y","1","moral"
"2027","20","male","R","Tra","C","S","P","5","5","10","moral","Tra","self","moral","0.4080","Y","1","moral"
"2027","20","male","R","Tra","C","S","P","5","5","11","moral","S","other","moral","0.4201","Y","1","moral"
"2027","20","male","R","Tra","C","S","P","5","5","12","moral","P","other","immoral","0.4083","U","1","immoral"
"2027","20","male","R","Tra","C","S","P","5","5","13","moral","S","other","moral","0.4485","Y","1","moral"
"2027","20","male","R","Tra","C","S","P","5","5","14","moral","C","self","immoral","0.3826","U","1","immoral"
"2027","20","male","R","Tra","C","S","P","5","5","15","moral","S","other","moral","0.4768","Y","1","moral"
"2027","20","male","R","Tra","C","S","P","5","5","16","moral","Tra","self","moral","0.4330","Y","1","moral"
"2027","20","male","R","Tra","C","S","P","5","5","17","moral","S","other","moral","0.4031","Y","1","moral"
"2027","20","male","R","Tra","C","S","P","5","5","18","moral","Tra","self","moral","0.3913","Y","1","moral"
"2027","20","male","R","Tra","C","S","P","5","5","19","moral","P","other","immoral","0.4313","U","1","immoral"
"2027","20","male","R","Tra","C","S","P","5","5","20","moral","P","other","immoral","0.4196","U","1","immoral"
"2027","20","male","R","Tra","C","S","P","5","5","21","moral","P","other","immoral","0.3418","U","1","immoral"
"2027","20","male","R","Tra","C","S","P","5","5","22","moral","C","self","immoral","0.3759","U","1","immoral"
"2027","20","male","R","Tra","C","S","P","5","5","23","moral","Tra","self","moral","0.3501","Y","1","moral"
"2027","20","male","R","Tra","C","S","P","5","5","24","moral","S","other","moral","0.4562","Y","1","moral"
"2027","20","male","R","Tra","C","S","P","5","6","1","moral","S","other","moral","0.3644","Y","1","moral"
"2027","20","male","R","Tra","C","S","P","5","6","2","moral","S","other","moral","0.4145","Y","1","moral"
"2027","20","male","R","Tra","C","S","P","5","6","3","moral","Tra","self","moral","0.3807","Y","1","moral"
"2027","20","male","R","Tra","C","S","P","5","6","4","moral","Tra","self","moral","0.3749","Y","1","moral"
"2027","20","male","R","Tra","C","S","P","5","6","5","moral","P","other","immoral","0.4430","U","1","immoral"
"2027","20","male","R","Tra","C","S","P","5","6","6","moral","P","other","immoral","0.4731","U","1","immoral"
"2027","20","male","R","Tra","C","S","P","5","6","7","moral","Tra","self","moral","0.5034","Y","1","moral"
"2027","20","male","R","Tra","C","S","P","5","6","8","moral","C","self","immoral","0.3714","U","1","immoral"
"2027","20","male","R","Tra","C","S","P","5","6","9","moral","P","other","immoral","0.4616","U","1","immoral"
"2027","20","male","R","Tra","C","S","P","5","6","10","moral","C","self","immoral","0.4179","U","1","immoral"
"2027","20","male","R","Tra","C","S","P","5","6","11","moral","S","other","moral","0.3519","Y","1","moral"
"2027","20","male","R","Tra","C","S","P","5","6","12","moral","C","self","immoral","0.3562","U","1","immoral"
"2027","20","male","R","Tra","C","S","P","5","6","13","moral","P","other","immoral","0.3383","U","1","immoral"
"2027","20","male","R","Tra","C","S","P","5","6","14","moral","S","other","moral","0.3084","Y","1","moral"
"2027","20","male","R","Tra","C","S","P","5","6","15","moral","S","other","moral","0.3187","Y","1","moral"
"2027","20","male","R","Tra","C","S","P","5","6","16","moral","C","self","immoral","0.4107","U","1","immoral"
"2027","20","male","R","Tra","C","S","P","5","6","17","moral","C","self","immoral","0.3429","U","1","immoral"
"2027","20","male","R","Tra","C","S","P","5","6","18","moral","Tra","self","moral","0.4011","Y","1","moral"
"2027","20","male","R","Tra","C","S","P","5","6","19","moral","Tra","self","moral","0.2892","Y","1","moral"
"2027","20","male","R","Tra","C","S","P","5","6","20","moral","P","other","immoral","0.3394","U","1","immoral"
"2027","20","male","R","Tra","C","S","P","5","6","21","moral","C","self","immoral","0.3655","U","1","immoral"
"2027","20","male","R","Tra","C","S","P","5","6","22","moral","S","other","moral","0.2718","Y","1","moral"
"2027","20","male","R","Tra","C","S","P","5","6","23","moral","P","other","immoral","0.3979","U","1","immoral"
"2027","20","male","R","Tra","C","S","P","5","6","24","moral","Tra","self","moral","0.5379","Y","1","moral"
"2027","20","male","R","Tra","C","S","P","6","1","1","importance","Tra","self","moral","0.4955","P","1","important"
"2027","20","male","R","Tra","C","S","P","6","1","2","importance","S","other","moral","0.3558","P","1","important"
"2027","20","male","R","Tra","C","S","P","6","1","3","importance","C","self","immoral","0.3139","P","1","important"
"2027","20","male","R","Tra","C","S","P","6","1","4","importance","Tra","self","moral","0.3281","P","1","important"
"2027","20","male","R","Tra","C","S","P","6","1","5","importance","C","self","immoral","0.3323","P","1","important"
"2027","20","male","R","Tra","C","S","P","6","1","6","importance","S","other","moral","0.3464","P","1","important"
"2027","20","male","R","Tra","C","S","P","6","1","7","importance","P","other","immoral","0.4985","O","1","unimportant"
"2027","20","male","R","Tra","C","S","P","6","1","8","importance","C","self","immoral","0.4627","P","1","important"
"2027","20","male","R","Tra","C","S","P","6","1","9","importance","S","other","moral","0.3828","P","1","important"
"2027","20","male","R","Tra","C","S","P","6","1","10","importance","C","self","immoral","0.4051","P","1","important"
"2027","20","male","R","Tra","C","S","P","6","1","11","importance","P","other","immoral","0.4733","O","1","unimportant"
"2027","20","male","R","Tra","C","S","P","6","1","12","importance","Tra","self","moral","0.4655","P","1","important"
"2027","20","male","R","Tra","C","S","P","6","1","13","importance","C","self","immoral","0.3975","P","1","important"
"2027","20","male","R","Tra","C","S","P","6","1","14","importance","Tra","self","moral","0.4657","P","1","important"
"2027","20","male","R","Tra","C","S","P","6","1","15","importance","P","other","immoral","0.4618","O","1","unimportant"
"2027","20","male","R","Tra","C","S","P","6","1","16","importance","P","other","immoral","0.3880","O","1","unimportant"
"2027","20","male","R","Tra","C","S","P","6","1","17","importance","Tra","self","moral","0.3722","P","1","important"
"2027","20","male","R","Tra","C","S","P","6","1","18","importance","S","other","moral","0.3483","P","1","important"
"2027","20","male","R","Tra","C","S","P","6","1","19","importance","P","other","immoral","0.4145","O","1","unimportant"
"2027","20","male","R","Tra","C","S","P","6","1","20","importance","Tra","self","moral","0.4486","P","1","important"
"2027","20","male","R","Tra","C","S","P","6","1","21","importance","S","other","moral","0.4007","P","1","important"
"2027","20","male","R","Tra","C","S","P","6","1","22","importance","P","other","immoral","0.3649","O","1","unimportant"
"2027","20","male","R","Tra","C","S","P","6","1","23","importance","S","other","moral","0.3730","P","1","important"
"2027","20","male","R","Tra","C","S","P","6","1","24","importance","C","self","immoral","0.5912","P","1","important"
"2027","20","male","R","Tra","C","S","P","6","2","1","importance","P","other","immoral","0.3294","O","1","unimportant"
"2027","20","male","R","Tra","C","S","P","6","2","2","importance","C","self","immoral","0.4575","P","1","important"
"2027","20","male","R","Tra","C","S","P","6","2","3","importance","S","other","moral","0.3437","P","1","important"
"2027","20","male","R","Tra","C","S","P","6","2","4","importance","P","other","immoral","0.3819","O","1","unimportant"
"2027","20","male","R","Tra","C","S","P","6","2","5","importance","S","other","moral","0.3860","P","1","important"
"2027","20","male","R","Tra","C","S","P","6","2","6","importance","C","self","immoral","0.5782","P","1","important"
"2027","20","male","R","Tra","C","S","P","6","2","7","importance","S","other","moral","0.3563","P","1","important"
"2027","20","male","R","Tra","C","S","P","6","2","8","importance","P","other","immoral","0.4185","O","1","unimportant"
"2027","20","male","R","Tra","C","S","P","6","2","9","importance","C","self","immoral","0.4467","P","1","important"
"2027","20","male","R","Tra","C","S","P","6","2","10","importance","P","other","immoral","0.3609","O","1","unimportant"
"2027","20","male","R","Tra","C","S","P","6","2","11","importance","Tra","self","moral","0.3789","P","1","important"
"2027","20","male","R","Tra","C","S","P","6","2","12","importance","S","other","moral","0.3432","P","1","important"
"2027","20","male","R","Tra","C","S","P","6","2","13","importance","P","other","immoral","0.3873","O","1","unimportant"
"2027","20","male","R","Tra","C","S","P","6","2","14","importance","C","self","immoral","0.3215","P","1","important"
"2027","20","male","R","Tra","C","S","P","6","2","15","importance","Tra","self","moral","0.5617","P","1","important"
"2027","20","male","R","Tra","C","S","P","6","2","16","importance","S","other","moral","0.4978","P","1","important"
"2027","20","male","R","Tra","C","S","P","6","2","17","importance","Tra","self","moral","0.3860","P","1","important"
"2027","20","male","R","Tra","C","S","P","6","2","18","importance","Tra","self","moral","0.3961","P","1","important"
"2027","20","male","R","Tra","C","S","P","6","2","19","importance","Tra","self","moral","0.3403","P","1","important"
"2027","20","male","R","Tra","C","S","P","6","2","20","importance","C","self","immoral","0.2944","P","1","important"
"2027","20","male","R","Tra","C","S","P","6","2","21","importance","P","other","immoral","0.4226","O","1","unimportant"
"2027","20","male","R","Tra","C","S","P","6","2","22","importance","C","self","immoral","0.3828","P","1","important"
"2027","20","male","R","Tra","C","S","P","6","2","23","importance","Tra","self","moral","0.4049","P","1","important"
"2027","20","male","R","Tra","C","S","P","6","2","24","importance","S","other","moral","0.3612","P","1","important"
"2027","20","male","R","Tra","C","S","P","6","3","1","importance","S","other","moral","0.3013","P","1","important"
"2027","20","male","R","Tra","C","S","P","6","3","2","importance","S","other","moral","0.4174","P","1","important"
"2027","20","male","R","Tra","C","S","P","6","3","3","importance","P","other","immoral","0.5536","O","1","unimportant"
"2027","20","male","R","Tra","C","S","P","6","3","4","importance","S","other","moral","0.3258","P","1","important"
"2027","20","male","R","Tra","C","S","P","6","3","5","importance","S","other","moral","0.2819","P","1","important"
"2027","20","male","R","Tra","C","S","P","6","3","6","importance","P","other","immoral","0.2981","O","1","unimportant"
"2027","20","male","R","Tra","C","S","P","6","3","7","importance","S","other","moral","0.2622","P","1","important"
"2027","20","male","R","Tra","C","S","P","6","3","8","importance","Tra","self","moral","0.2983","P","1","important"
"2027","20","male","R","Tra","C","S","P","6","3","9","importance","Tra","self","moral","0.2786","P","1","important"
"2027","20","male","R","Tra","C","S","P","6","3","10","importance","Tra","self","moral","0.2887","P","1","important"
"2027","20","male","R","Tra","C","S","P","6","3","11","importance","C","self","immoral","0.2828","P","1","important"
"2027","20","male","R","Tra","C","S","P","6","3","12","importance","C","self","immoral","0.2789","P","1","important"
"2027","20","male","R","Tra","C","S","P","6","3","13","importance","Tra","self","moral","0.3211","P","1","important"
"2027","20","male","R","Tra","C","S","P","6","3","14","importance","C","self","immoral","0.2553","P","1","important"
"2027","20","male","R","Tra","C","S","P","6","3","15","importance","Tra","self","moral","0.2914","P","1","important"
"2027","20","male","R","Tra","C","S","P","6","3","16","importance","C","self","immoral","0.2637","P","1","important"
"2027","20","male","R","Tra","C","S","P","6","3","17","importance","C","self","immoral","0.2559","P","1","important"
"2027","20","male","R","Tra","C","S","P","6","3","18","importance","P","other","immoral","0.4019","O","1","unimportant"
"2027","20","male","R","Tra","C","S","P","6","3","19","importance","P","other","immoral","0.3001","O","1","unimportant"
"2027","20","male","R","Tra","C","S","P","6","3","20","importance","C","self","immoral","0.3363","P","1","important"
"2027","20","male","R","Tra","C","S","P","6","3","21","importance","P","other","immoral","0.3625","O","1","unimportant"
"2027","20","male","R","Tra","C","S","P","6","3","22","importance","S","other","moral","0.2825","P","1","important"
"2027","20","male","R","Tra","C","S","P","6","3","23","importance","Tra","self","moral","0.3548","P","1","important"
"2027","20","male","R","Tra","C","S","P","6","3","24","importance","P","other","immoral","0.3529","O","1","unimportant"
"2027","20","male","R","Tra","C","S","P","6","4","1","importance","C","self","immoral","0.3356","P","1","important"
"2027","20","male","R","Tra","C","S","P","6","4","2","importance","S","other","moral","0.3137","P","1","important"
"2027","20","male","R","Tra","C","S","P","6","4","3","importance","C","self","immoral","0.2859","P","1","important"
"2027","20","male","R","Tra","C","S","P","6","4","4","importance","C","self","immoral","0.2980","P","1","important"
"2027","20","male","R","Tra","C","S","P","6","4","5","importance","S","other","moral","0.2463","P","1","important"
"2027","20","male","R","Tra","C","S","P","6","4","6","importance","Tra","self","moral","0.3903","P","1","important"
"2027","20","male","R","Tra","C","S","P","6","4","7","importance","Tra","self","moral","0.4005","P","1","important"
"2027","20","male","R","Tra","C","S","P","6","4","8","importance","P","other","immoral","0.3947","O","1","unimportant"
"2027","20","male","R","Tra","C","S","P","6","4","9","importance","P","other","immoral","0.2968","O","1","unimportant"
"2027","20","male","R","Tra","C","S","P","6","4","10","importance","P","other","immoral","0.3489","O","1","unimportant"
"2027","20","male","R","Tra","C","S","P","6","4","11","importance","Tra","self","moral","0.3650","P","1","important"
"2027","20","male","R","Tra","C","S","P","6","4","12","importance","Tra","self","moral","0.3373","P","1","important"
"2027","20","male","R","Tra","C","S","P","6","4","13","importance","Tra","self","moral","0.2975","P","1","important"
"2027","20","male","R","Tra","C","S","P","6","4","14","importance","C","self","immoral","0.3056","P","1","important"
"2027","20","male","R","Tra","C","S","P","6","4","15","importance","C","self","immoral","0.2838","P","1","important"
"2027","20","male","R","Tra","C","S","P","6","4","16","importance","C","self","immoral","0.2879","P","1","important"
"2027","20","male","R","Tra","C","S","P","6","4","17","importance","S","other","moral","0.2981","P","1","important"
"2027","20","male","R","Tra","C","S","P","6","4","18","importance","P","other","immoral","0.3202","O","1","unimportant"
"2027","20","male","R","Tra","C","S","P","6","4","19","importance","S","other","moral","0.4584","P","1","important"
"2027","20","male","R","Tra","C","S","P","6","4","20","importance","S","other","moral","0.4944","P","1","important"
"2027","20","male","R","Tra","C","S","P","6","4","21","importance","P","other","immoral","0.4266","O","1","unimportant"
"2027","20","male","R","Tra","C","S","P","6","4","22","importance","P","other","immoral","0.3309","O","1","unimportant"
"2027","20","male","R","Tra","C","S","P","6","4","23","importance","Tra","self","moral","0.3330","P","1","important"
"2027","20","male","R","Tra","C","S","P","6","4","24","importance","S","other","moral","0.3292","P","1","important"
"2027","20","male","R","Tra","C","S","P","6","5","1","importance","S","other","moral","0.2712","P","1","important"
"2027","20","male","R","Tra","C","S","P","6","5","2","importance","S","other","moral","0.2815","P","1","important"
"2027","20","male","R","Tra","C","S","P","6","5","3","importance","C","self","immoral","0.2437","P","1","important"
"2027","20","male","R","Tra","C","S","P","6","5","4","importance","P","other","immoral","0.3539","O","1","unimportant"
"2027","20","male","R","Tra","C","S","P","6","5","5","importance","S","other","moral","0.4220","P","1","important"
"2027","20","male","R","Tra","C","S","P","6","5","6","importance","S","other","moral","0.3021","P","1","important"
"2027","20","male","R","Tra","C","S","P","6","5","7","importance","Tra","self","moral","0.3463","P","1","important"
"2027","20","male","R","Tra","C","S","P","6","5","8","importance","P","other","immoral","0.3785","O","1","unimportant"
"2027","20","male","R","Tra","C","S","P","6","5","9","importance","Tra","self","moral","0.3687","P","1","important"
"2027","20","male","R","Tra","C","S","P","6","5","10","importance","P","other","immoral","0.4808","O","1","unimportant"
"2027","20","male","R","Tra","C","S","P","6","5","11","importance","P","other","immoral","0.3970","O","1","unimportant"
"2027","20","male","R","Tra","C","S","P","6","5","12","importance","Tra","self","moral","0.3693","P","1","important"
"2027","20","male","R","Tra","C","S","P","6","5","13","importance","Tra","self","moral","0.3852","P","1","important"
"2027","20","male","R","Tra","C","S","P","6","5","14","importance","P","other","immoral","0.4456","O","1","unimportant"
"2027","20","male","R","Tra","C","S","P","6","5","15","importance","C","self","immoral","0.2797","P","1","important"
"2027","20","male","R","Tra","C","S","P","6","5","16","importance","S","other","moral","0.2679","P","1","important"
"2027","20","male","R","Tra","C","S","P","6","5","17","importance","P","other","immoral","0.2040","P","0","unimportant"
"2027","20","male","R","Tra","C","S","P","6","5","18","importance","C","self","immoral","0.3601","P","1","important"
"2027","20","male","R","Tra","C","S","P","6","5","19","importance","C","self","immoral","0.2983","P","1","important"
"2027","20","male","R","Tra","C","S","P","6","5","20","importance","S","other","moral","0.3324","P","1","important"
"2027","20","male","R","Tra","C","S","P","6","5","21","importance","Tra","self","moral","0.4686","P","1","important"
"2027","20","male","R","Tra","C","S","P","6","5","22","importance","C","self","immoral","0.3848","P","1","important"
"2027","20","male","R","Tra","C","S","P","6","5","23","importance","C","self","immoral","0.2869","P","1","important"
"2027","20","male","R","Tra","C","S","P","6","5","24","importance","Tra","self","moral","0.3552","P","1","important"
"2027","20","male","R","Tra","C","S","P","6","6","1","importance","P","other","immoral","0.4512","O","1","unimportant"
"2027","20","male","R","Tra","C","S","P","6","6","2","importance","C","self","immoral","0.4594","P","1","important"
"2027","20","male","R","Tra","C","S","P","6","6","3","importance","P","other","immoral","0.3096","O","1","unimportant"
"2027","20","male","R","Tra","C","S","P","6","6","4","importance","P","other","immoral","0.3218","O","1","unimportant"
"2027","20","male","R","Tra","C","S","P","6","6","5","importance","C","self","immoral","0.4319","P","1","important"
"2027","20","male","R","Tra","C","S","P","6","6","6","importance","S","other","moral","0.3279","P","1","important"
"2027","20","male","R","Tra","C","S","P","6","6","7","importance","S","other","moral","0.3161","P","1","important"
"2027","20","male","R","Tra","C","S","P","6","6","8","importance","Tra","self","moral","0.4445","P","1","important"
"2027","20","male","R","Tra","C","S","P","6","6","9","importance","Tra","self","moral","0.3725","P","1","important"
"2027","20","male","R","Tra","C","S","P","6","6","10","importance","S","other","moral","0.3067","P","1","important"
"2027","20","male","R","Tra","C","S","P","6","6","11","importance","C","self","immoral","0.2728","P","1","important"
"2027","20","male","R","Tra","C","S","P","6","6","12","importance","P","other","immoral","0.4550","O","1","unimportant"
"2027","20","male","R","Tra","C","S","P","6","6","13","importance","Tra","self","moral","0.4091","P","1","important"
"2027","20","male","R","Tra","C","S","P","6","6","14","importance","Tra","self","moral","0.4212","P","1","important"
"2027","20","male","R","Tra","C","S","P","6","6","15","importance","Tra","self","moral","0.3614","P","1","important"
"2027","20","male","R","Tra","C","S","P","6","6","16","importance","C","self","immoral","0.2937","P","1","important"
"2027","20","male","R","Tra","C","S","P","6","6","17","importance","S","other","moral","0.3057","P","1","important"
"2027","20","male","R","Tra","C","S","P","6","6","18","importance","S","other","moral","0.3898","P","1","important"
"2027","20","male","R","Tra","C","S","P","6","6","19","importance","P","other","immoral","0.3901","O","1","unimportant"
"2027","20","male","R","Tra","C","S","P","6","6","20","importance","C","self","immoral","0.3522","P","1","important"
"2027","20","male","R","Tra","C","S","P","6","6","21","importance","C","self","immoral","0.3204","P","1","important"
"2027","20","male","R","Tra","C","S","P","6","6","22","importance","P","other","immoral","0.3565","O","1","unimportant"
"2027","20","male","R","Tra","C","S","P","6","6","23","importance","S","other","moral","0.4047","P","1","important"
"2027","20","male","R","Tra","C","S","P","6","6","24","importance","Tra","self","moral","0.3649","P","1","important"
"2027","20","male","R","Tra","C","S","P","1","1","1","importance","C","self","immoral","0.9002","O","0","important"
"2027","20","male","R","Tra","C","S","P","1","1","2","importance","S","other","moral","0.8005","P","1","important"
"2027","20","male","R","Tra","C","S","P","1","1","3","importance","Tra","self","moral","0.7728","P","1","important"
"2027","20","male","R","Tra","C","S","P","1","1","4","importance","Tra","self","moral","0.6268","P","1","important"
"2027","20","male","R","Tra","C","S","P","1","1","5","importance","C","self","immoral","0.4330","O","0","important"
"2027","20","male","R","Tra","C","S","P","1","1","6","importance","P","other","immoral","0.3952","O","0","unimportant"
"2027","20","male","R","Tra","C","S","P","1","1","7","importance","S","other","moral","0.2172","P","1","important"
"2027","20","male","R","Tra","C","S","P","1","1","8","importance","C","self","immoral","0.2474","O","0","important"
"2027","20","male","R","Tra","C","S","P","1","1","9","importance","C","self","immoral","0.3136","O","0","important"
"2027","20","male","R","Tra","C","S","P","1","1","10","importance","P","other","immoral","0.5258","P","0","unimportant"
"2027","20","male","R","Tra","C","S","P","1","1","11","importance","S","other","moral","0.5399","P","1","important"
"2027","20","male","R","Tra","C","S","P","1","1","12","importance","C","self","immoral","0.4000","O","0","important"
"2027","20","male","R","Tra","C","S","P","1","1","13","importance","C","self","immoral","0.3802","O","0","important"
"2027","20","male","R","Tra","C","S","P","1","1","14","importance","P","other","immoral","0.4744","P","0","unimportant"
"2027","20","male","R","Tra","C","S","P","1","1","15","importance","Tra","self","moral","0.5945","P","1","important"
"2027","20","male","R","Tra","C","S","P","1","1","16","importance","S","other","moral","0.4967","P","1","important"
"2027","20","male","R","Tra","C","S","P","1","1","17","importance","S","other","moral","0.4909","P","1","important"
"2027","20","male","R","Tra","C","S","P","1","1","18","importance","Tra","self","moral","0.4090","P","1","important"
"2027","20","male","R","Tra","C","S","P","1","1","19","importance","Tra","self","moral","0.5652","P","1","important"
"2027","20","male","R","Tra","C","S","P","1","1","20","importance","P","other","immoral","0.5573","P","0","unimportant"
"2027","20","male","R","Tra","C","S","P","1","1","21","importance","P","other","immoral","0.4195","P","0","unimportant"
"2027","20","male","R","Tra","C","S","P","1","1","22","importance","Tra","self","moral","0.3457","P","1","important"
"2027","20","male","R","Tra","C","S","P","1","1","23","importance","S","other","moral","0.5679","P","1","important"
"2027","20","male","R","Tra","C","S","P","1","1","24","importance","P","other","immoral","0.5320","P","0","unimportant"
"2027","20","male","R","Tra","C","S","P","1","2","1","importance","P","other","immoral","0.5542","P","0","unimportant"
"2027","20","male","R","Tra","C","S","P","1","2","2","importance","P","other","immoral","0.3944","P","0","unimportant"
"2027","20","male","R","Tra","C","S","P","1","2","3","importance","S","other","moral","0.3785","P","1","important"
"2027","20","male","R","Tra","C","S","P","1","2","4","importance","C","self","immoral","0.4246","O","0","important"
"2027","20","male","R","Tra","C","S","P","1","2","5","importance","Tra","self","moral","0.5988","P","1","important"
"2027","20","male","R","Tra","C","S","P","1","2","6","importance","S","other","moral","0.4949","P","1","important"
"2027","20","male","R","Tra","C","S","P","1","2","7","importance","C","self","immoral","0.3251","O","0","important"
"2027","20","male","R","Tra","C","S","P","1","2","8","importance","C","self","immoral","0.3293","O","0","important"
"2027","20","male","R","Tra","C","S","P","1","2","9","importance","C","self","immoral","0.3974","O","0","important"
"2027","20","male","R","Tra","C","S","P","1","2","10","importance","C","self","immoral","0.3615","O","0","important"
"2027","20","male","R","Tra","C","S","P","1","2","11","importance","S","other","moral","0.4578","P","1","important"
