"Subject","Age","Gender","Handness","moralSelfShape","immoralSelfShape","moralOtherShape","immoralOtherShape","Block","Bin","Trial","Task","shapeName","Identity","Morality","RT","ResponseKey","ACC","trialType"
7003,19,"male","R","Tra","C","S","P",1,1,1,"Val","C","Self","Bad",0.8984,"U",1,"immoral"
7003,19,"male","R","Tra","C","S","P",1,1,2,"Val","P","Other","Bad",0.7786,"U",1,"immoral"
7003,19,"male","R","Tra","C","S","P",1,1,3,"Val","C","Self","Bad",0.7547,"U",1,"immoral"
7003,19,"male","R","Tra","C","S","P",1,1,5,"Val","P","Other","Bad",0.8049,"U",1,"immoral"
7003,19,"male","R","Tra","C","S","P",1,1,6,"Val","P","Other","Bad",0.6171,"U",1,"immoral"
7003,19,"male","R","Tra","C","S","P",1,1,8,"Val","P","Other","Bad",0.6274,"U",1,"immoral"
7003,19,"male","R","Tra","C","S","P",1,1,9,"Val","P","Other","Bad",0.7455,"U",1,"immoral"
7003,19,"male","R","Tra","C","S","P",1,1,10,"Val","P","Other","Bad",0.5677,"U",1,"immoral"
7003,19,"male","R","Tra","C","S","P",1,1,12,"Val","C","Self","Bad",0.8858,"U",1,"immoral"
7003,19,"male","R","Tra","C","S","P",1,1,13,"Val","C","Self","Bad",0.648,"U",1,"immoral"
7003,19,"male","R","Tra","C","S","P",1,1,14,"Val","C","Self","Bad",0.5961,"U",1,"immoral"
7003,19,"male","R","Tra","C","S","P",1,1,15,"Val","S","Other","Good",0.4482,"Y",1,"moral"
7003,19,"male","R","Tra","C","S","P",1,1,16,"Val","Tra","Self","Good",0.5244,"Y",1,"moral"
7003,19,"male","R","Tra","C","S","P",1,1,17,"Val","Tra","Self","Good",0.4786,"Y",1,"moral"
7003,19,"male","R","Tra","C","S","P",1,1,18,"Val","S","Other","Good",0.4746,"Y",1,"moral"
7003,19,"male","R","Tra","C","S","P",1,1,19,"Val","C","Self","Bad",0.6167,"U",1,"immoral"
7003,19,"male","R","Tra","C","S","P",1,1,20,"Val","S","Other","Good",0.7789,"Y",1,"moral"
7003,19,"male","R","Tra","C","S","P",1,1,21,"Val","S","Other","Good",0.3912,"Y",1,"moral"
7003,19,"male","R","Tra","C","S","P",1,1,22,"Val","Tra","Self","Good",0.5692,"Y",1,"moral"
7003,19,"male","R","Tra","C","S","P",1,1,23,"Val","Tra","Self","Good",0.4352,"Y",1,"moral"
7003,19,"male","R","Tra","C","S","P",1,1,24,"Val","S","Other","Good",0.4654,"Y",1,"moral"
7003,19,"male","R","Tra","C","S","P",1,2,1,"Val","P","Other","Bad",0.5216,"U",1,"immoral"
7003,19,"male","R","Tra","C","S","P",1,2,2,"Val","P","Other","Bad",0.5596,"U",1,"immoral"
7003,19,"male","R","Tra","C","S","P",1,2,3,"Val","S","Other","Good",0.6378,"Y",1,"moral"
7003,19,"male","R","Tra","C","S","P",1,2,4,"Val","Tra","Self","Good",0.7139,"Y",1,"moral"
7003,19,"male","R","Tra","C","S","P",1,2,5,"Val","S","Other","Good",0.5021,"Y",1,"moral"
7003,19,"male","R","Tra","C","S","P",1,2,6,"Val","P","Other","Bad",0.6903,"U",1,"immoral"
7003,19,"male","R","Tra","C","S","P",1,2,7,"Val","S","Other","Good",0.5142,"Y",1,"moral"
7003,19,"male","R","Tra","C","S","P",1,2,8,"Val","Tra","Self","Good",0.4404,"Y",1,"moral"
7003,19,"male","R","Tra","C","S","P",1,2,9,"Val","Tra","Self","Good",0.5666,"Y",1,"moral"
7003,19,"male","R","Tra","C","S","P",1,2,10,"Val","Tra","Self","Good",0.5987,"Y",1,"moral"
7003,19,"male","R","Tra","C","S","P",1,2,11,"Val","C","Self","Bad",0.4209,"U",1,"immoral"
7003,19,"male","R","Tra","C","S","P",1,2,12,"Val","P","Other","Bad",0.495,"U",1,"immoral"
7003,19,"male","R","Tra","C","S","P",1,2,13,"Val","C","Self","Bad",0.3851,"U",1,"immoral"
7003,19,"male","R","Tra","C","S","P",1,2,14,"Val","C","Self","Bad",0.3713,"U",1,"immoral"
7003,19,"male","R","Tra","C","S","P",1,2,15,"Val","Tra","Self","Good",0.4213,"Y",1,"moral"
7003,19,"male","R","Tra","C","S","P",1,2,16,"Val","S","Other","Good",0.3736,"Y",1,"moral"
7003,19,"male","R","Tra","C","S","P",1,2,18,"Val","C","Self","Bad",0.4817,"U",1,"immoral"
7003,19,"male","R","Tra","C","S","P",1,2,19,"Val","P","Other","Bad",0.9278,"U",1,"immoral"
7003,19,"male","R","Tra","C","S","P",1,2,20,"Val","S","Other","Good",0.5621,"Y",1,"moral"
7003,19,"male","R","Tra","C","S","P",1,2,21,"Val","C","Self","Bad",0.8361,"U",1,"immoral"
7003,19,"male","R","Tra","C","S","P",1,2,23,"Val","S","Other","Good",0.3884,"Y",1,"moral"
7003,19,"male","R","Tra","C","S","P",1,2,24,"Val","P","Other","Bad",0.6286,"U",1,"immoral"
7003,19,"male","R","Tra","C","S","P",1,3,1,"Val","S","Other","Good",0.5306,"Y",1,"moral"
7003,19,"male","R","Tra","C","S","P",1,3,2,"Val","C","Self","Bad",0.6387,"U",1,"immoral"
7003,19,"male","R","Tra","C","S","P",1,3,3,"Val","P","Other","Bad",0.483,"U",1,"immoral"
7003,19,"male","R","Tra","C","S","P",1,3,4,"Val","Tra","Self","Good",0.511,"Y",1,"moral"
7003,19,"male","R","Tra","C","S","P",1,3,5,"Val","Tra","Self","Good",0.4191,"Y",1,"moral"
7003,19,"male","R","Tra","C","S","P",1,3,6,"Val","C","Self","Bad",0.4533,"U",1,"immoral"
7003,19,"male","R","Tra","C","S","P",1,3,7,"Val","S","Other","Good",0.4714,"Y",1,"moral"
7003,19,"male","R","Tra","C","S","P",1,3,8,"Val","P","Other","Bad",0.6715,"U",1,"immoral"
7003,19,"male","R","Tra","C","S","P",1,3,9,"Val","P","Other","Bad",0.5036,"U",1,"immoral"
7003,19,"male","R","Tra","C","S","P",1,3,10,"Val","S","Other","Good",0.4818,"Y",1,"moral"
7003,19,"male","R","Tra","C","S","P",1,3,11,"Val","P","Other","Bad",0.3559,"U",1,"immoral"
7003,19,"male","R","Tra","C","S","P",1,3,12,"Val","S","Other","Good",0.39,"Y",1,"moral"
7003,19,"male","R","Tra","C","S","P",1,3,14,"Val","C","Self","Bad",0.4062,"U",1,"immoral"
7003,19,"male","R","Tra","C","S","P",1,3,15,"Val","Tra","Self","Good",0.5884,"Y",1,"moral"
7003,19,"male","R","Tra","C","S","P",1,3,16,"Val","C","Self","Bad",0.5926,"U",1,"immoral"
7003,19,"male","R","Tra","C","S","P",1,3,17,"Val","S","Other","Good",0.4866,"Y",1,"moral"
7003,19,"male","R","Tra","C","S","P",1,3,18,"Val","P","Other","Bad",0.5408,"U",1,"immoral"
7003,19,"male","R","Tra","C","S","P",1,3,19,"Val","C","Self","Bad",0.6229,"U",1,"immoral"
7003,19,"male","R","Tra","C","S","P",1,3,20,"Val","Tra","Self","Good",0.7631,"Y",1,"moral"
7003,19,"male","R","Tra","C","S","P",1,3,21,"Val","S","Other","Good",0.7392,"Y",1,"moral"
7003,19,"male","R","Tra","C","S","P",1,3,22,"Val","P","Other","Bad",0.5333,"U",1,"immoral"
7003,19,"male","R","Tra","C","S","P",1,3,23,"Val","C","Self","Bad",0.5435,"U",1,"immoral"
7003,19,"male","R","Tra","C","S","P",1,3,24,"Val","Tra","Self","Good",0.5955,"Y",1,"moral"
7003,19,"male","R","Tra","C","S","P",1,4,1,"Val","P","Other","Bad",0.5221,"U",1,"immoral"
7003,19,"male","R","Tra","C","S","P",1,4,2,"Val","S","Other","Good",0.4342,"Y",1,"moral"
7003,19,"male","R","Tra","C","S","P",1,4,3,"Val","Tra","Self","Good",0.7464,"Y",1,"moral"
7003,19,"male","R","Tra","C","S","P",1,4,4,"Val","S","Other","Good",0.4645,"Y",1,"moral"
7003,19,"male","R","Tra","C","S","P",1,4,5,"Val","C","Self","Bad",0.3967,"U",1,"immoral"
7003,19,"male","R","Tra","C","S","P",1,4,6,"Val","P","Other","Bad",0.4527,"U",1,"immoral"
7003,19,"male","R","Tra","C","S","P",1,4,7,"Val","Tra","Self","Good",0.6408,"Y",1,"moral"
7003,19,"male","R","Tra","C","S","P",1,4,8,"Val","C","Self","Bad",0.571,"U",1,"immoral"
7003,19,"male","R","Tra","C","S","P",1,4,9,"Val","Tra","Self","Good",0.6052,"Y",1,"moral"
7003,19,"male","R","Tra","C","S","P",1,4,10,"Val","S","Other","Good",0.4953,"Y",1,"moral"
7003,19,"male","R","Tra","C","S","P",1,4,11,"Val","C","Self","Bad",0.4114,"U",1,"immoral"
7003,19,"male","R","Tra","C","S","P",1,4,12,"Val","P","Other","Bad",0.5435,"U",1,"immoral"
7003,19,"male","R","Tra","C","S","P",1,4,13,"Val","Tra","Self","Good",0.6377,"Y",1,"moral"
7003,19,"male","R","Tra","C","S","P",1,4,14,"Val","Tra","Self","Good",0.5978,"Y",1,"moral"
7003,19,"male","R","Tra","C","S","P",1,4,15,"Val","P","Other","Bad",0.5759,"U",1,"immoral"
7003,19,"male","R","Tra","C","S","P",1,4,16,"Val","S","Other","Good",0.548,"Y",1,"moral"
7003,19,"male","R","Tra","C","S","P",1,4,17,"Val","C","Self","Bad",0.5582,"U",1,"immoral"
7003,19,"male","R","Tra","C","S","P",1,4,18,"Val","S","Other","Good",0.5403,"Y",1,"moral"
7003,19,"male","R","Tra","C","S","P",1,4,19,"Val","S","Other","Good",0.4804,"Y",1,"moral"
7003,19,"male","R","Tra","C","S","P",1,4,20,"Val","C","Self","Bad",0.4445,"U",1,"immoral"
7003,19,"male","R","Tra","C","S","P",1,4,22,"Val","Tra","Self","Good",0.5708,"Y",1,"moral"
7003,19,"male","R","Tra","C","S","P",1,4,23,"Val","C","Self","Bad",0.5589,"U",1,"immoral"
7003,19,"male","R","Tra","C","S","P",1,4,24,"Val","P","Other","Bad",0.4171,"U",1,"immoral"
7003,19,"male","R","Tra","C","S","P",1,5,1,"Val","Tra","Self","Good",0.4732,"Y",1,"moral"
7003,19,"male","R","Tra","C","S","P",1,5,2,"Val","Tra","Self","Good",0.5634,"Y",1,"moral"
7003,19,"male","R","Tra","C","S","P",1,5,3,"Val","Tra","Self","Good",0.5095,"Y",1,"moral"
7003,19,"male","R","Tra","C","S","P",1,5,4,"Val","Tra","Self","Good",0.4595,"Y",1,"moral"
7003,19,"male","R","Tra","C","S","P",1,5,5,"Val","P","Other","Bad",0.4677,"U",1,"immoral"
7003,19,"male","R","Tra","C","S","P",1,5,6,"Val","C","Self","Bad",0.5618,"U",1,"immoral"
7003,19,"male","R","Tra","C","S","P",1,5,7,"Val","P","Other","Bad",0.7279,"U",1,"immoral"
7003,19,"male","R","Tra","C","S","P",1,5,8,"Val","P","Other","Bad",0.572,"U",1,"immoral"
7003,19,"male","R","Tra","C","S","P",1,5,9,"Val","C","Self","Bad",0.4902,"U",1,"immoral"
7003,19,"male","R","Tra","C","S","P",1,5,10,"Val","C","Self","Bad",0.4943,"U",1,"immoral"
7003,19,"male","R","Tra","C","S","P",1,5,11,"Val","C","Self","Bad",0.4004,"U",1,"immoral"
7003,19,"male","R","Tra","C","S","P",1,5,12,"Val","Tra","Self","Good",0.4626,"Y",1,"moral"
7003,19,"male","R","Tra","C","S","P",1,5,13,"Val","P","Other","Bad",0.4808,"U",1,"immoral"
7003,19,"male","R","Tra","C","S","P",1,5,14,"Val","S","Other","Good",0.3428,"Y",1,"moral"
7003,19,"male","R","Tra","C","S","P",1,5,15,"Val","P","Other","Bad",0.465,"U",1,"immoral"
7003,19,"male","R","Tra","C","S","P",1,5,16,"Val","C","Self","Bad",0.4891,"U",1,"immoral"
7003,19,"male","R","Tra","C","S","P",1,5,17,"Val","P","Other","Bad",0.4712,"U",1,"immoral"
7003,19,"male","R","Tra","C","S","P",1,5,18,"Val","C","Self","Bad",0.4974,"U",1,"immoral"
7003,19,"male","R","Tra","C","S","P",1,5,19,"Val","S","Other","Good",0.4775,"Y",1,"moral"
7003,19,"male","R","Tra","C","S","P",1,5,20,"Val","Tra","Self","Good",0.6336,"Y",1,"moral"
7003,19,"male","R","Tra","C","S","P",1,5,21,"Val","S","Other","Good",0.5778,"Y",1,"moral"
7003,19,"male","R","Tra","C","S","P",1,5,22,"Val","S","Other","Good",0.4979,"Y",1,"moral"
7003,19,"male","R","Tra","C","S","P",1,5,23,"Val","S","Other","Good",0.492,"Y",1,"moral"
7003,19,"male","R","Tra","C","S","P",1,5,24,"Val","S","Other","Good",0.5201,"Y",1,"moral"
7003,19,"male","R","Tra","C","S","P",1,6,1,"Val","Tra","Self","Good",0.4724,"Y",1,"moral"
7003,19,"male","R","Tra","C","S","P",1,6,2,"Val","S","Other","Good",0.4145,"Y",1,"moral"
7003,19,"male","R","Tra","C","S","P",1,6,3,"Val","C","Self","Bad",0.3645,"U",1,"immoral"
7003,19,"male","R","Tra","C","S","P",1,6,4,"Val","S","Other","Good",0.5947,"Y",1,"moral"
7003,19,"male","R","Tra","C","S","P",1,6,5,"Val","C","Self","Bad",0.5388,"U",1,"immoral"
7003,19,"male","R","Tra","C","S","P",1,6,6,"Val","S","Other","Good",0.5909,"Y",1,"moral"
7003,19,"male","R","Tra","C","S","P",1,6,7,"Val","P","Other","Bad",0.5131,"U",1,"immoral"
7003,19,"male","R","Tra","C","S","P",1,6,8,"Val","Tra","Self","Good",0.5132,"Y",1,"moral"
7003,19,"male","R","Tra","C","S","P",1,6,9,"Val","S","Other","Good",0.5233,"Y",1,"moral"
7003,19,"male","R","Tra","C","S","P",1,6,10,"Val","P","Other","Bad",0.5054,"U",1,"immoral"
7003,19,"male","R","Tra","C","S","P",1,6,11,"Val","P","Other","Bad",0.4476,"U",1,"immoral"
7003,19,"male","R","Tra","C","S","P",1,6,12,"Val","S","Other","Good",0.4357,"Y",1,"moral"
7003,19,"male","R","Tra","C","S","P",1,6,13,"Val","P","Other","Bad",0.4778,"U",1,"immoral"
7003,19,"male","R","Tra","C","S","P",1,6,14,"Val","Tra","Self","Good",0.4999,"Y",1,"moral"
7003,19,"male","R","Tra","C","S","P",1,6,15,"Val","C","Self","Bad",0.5281,"U",1,"immoral"
7003,19,"male","R","Tra","C","S","P",1,6,16,"Val","Tra","Self","Good",0.4922,"Y",1,"moral"
7003,19,"male","R","Tra","C","S","P",1,6,17,"Val","C","Self","Bad",0.5083,"U",1,"immoral"
7003,19,"male","R","Tra","C","S","P",1,6,18,"Val","Tra","Self","Good",0.4685,"Y",1,"moral"
7003,19,"male","R","Tra","C","S","P",1,6,19,"Val","C","Self","Bad",0.5285,"U",1,"immoral"
7003,19,"male","R","Tra","C","S","P",1,6,20,"Val","P","Other","Bad",0.4928,"U",1,"immoral"
7003,19,"male","R","Tra","C","S","P",1,6,21,"Val","P","Other","Bad",0.5629,"U",1,"immoral"
7003,19,"male","R","Tra","C","S","P",1,6,22,"Val","C","Self","Bad",0.4549,"U",1,"immoral"
7003,19,"male","R","Tra","C","S","P",1,6,23,"Val","Tra","Self","Good",0.4372,"Y",1,"moral"
7003,19,"male","R","Tra","C","S","P",1,6,24,"Val","S","Other","Good",0.4453,"Y",1,"moral"
7003,19,"male","R","Tra","C","S","P",3,1,1,"Id","S","Other","Good",0.6481,"H",1,"other"
7003,19,"male","R","Tra","C","S","P",3,1,2,"Id","C","Self","Bad",0.7583,"J",1,"self"
7003,19,"male","R","Tra","C","S","P",3,1,3,"Id","C","Self","Bad",0.4764,"J",1,"self"
7003,19,"male","R","Tra","C","S","P",3,1,4,"Id","Tra","Self","Good",0.5705,"J",1,"self"
7003,19,"male","R","Tra","C","S","P",3,1,5,"Id","C","Self","Bad",0.4607,"J",1,"self"
7003,19,"male","R","Tra","C","S","P",3,1,6,"Id","C","Self","Bad",0.4488,"J",1,"self"
7003,19,"male","R","Tra","C","S","P",3,1,7,"Id","P","Other","Bad",0.6129,"H",1,"other"
7003,19,"male","R","Tra","C","S","P",3,1,8,"Id","P","Other","Bad",0.4071,"H",1,"other"
7003,19,"male","R","Tra","C","S","P",3,1,9,"Id","C","Self","Bad",0.4912,"J",1,"self"
7003,19,"male","R","Tra","C","S","P",3,1,10,"Id","S","Other","Good",0.8454,"H",1,"other"
7003,19,"male","R","Tra","C","S","P",3,1,11,"Id","Tra","Self","Good",0.5535,"J",1,"self"
7003,19,"male","R","Tra","C","S","P",3,1,12,"Id","Tra","Self","Good",0.4077,"J",1,"self"
7003,19,"male","R","Tra","C","S","P",3,1,13,"Id","P","Other","Bad",0.5317,"H",1,"other"
7003,19,"male","R","Tra","C","S","P",3,1,14,"Id","P","Other","Bad",0.5918,"H",1,"other"
7003,19,"male","R","Tra","C","S","P",3,1,15,"Id","Tra","Self","Good",0.5399,"J",1,"self"
7003,19,"male","R","Tra","C","S","P",3,1,16,"Id","S","Other","Good",0.5341,"H",1,"other"
7003,19,"male","R","Tra","C","S","P",3,1,17,"Id","P","Other","Bad",0.6142,"H",1,"other"
7003,19,"male","R","Tra","C","S","P",3,1,18,"Id","S","Other","Good",0.6344,"H",1,"other"
7003,19,"male","R","Tra","C","S","P",3,1,19,"Id","Tra","Self","Good",0.5224,"J",1,"self"
7003,19,"male","R","Tra","C","S","P",3,1,20,"Id","C","Self","Bad",0.5386,"J",1,"self"
7003,19,"male","R","Tra","C","S","P",3,1,21,"Id","S","Other","Good",0.6767,"H",1,"other"
7003,19,"male","R","Tra","C","S","P",3,1,22,"Id","S","Other","Good",0.3747,"H",1,"other"
7003,19,"male","R","Tra","C","S","P",3,1,23,"Id","P","Other","Bad",0.611,"H",1,"other"
7003,19,"male","R","Tra","C","S","P",3,1,24,"Id","Tra","Self","Good",0.4811,"J",1,"self"
7003,19,"male","R","Tra","C","S","P",3,2,1,"Id","C","Self","Bad",0.5473,"J",1,"self"
7003,19,"male","R","Tra","C","S","P",3,2,2,"Id","P","Other","Bad",0.6173,"H",1,"other"
7003,19,"male","R","Tra","C","S","P",3,2,3,"Id","Tra","Self","Good",0.5755,"J",1,"self"
7003,19,"male","R","Tra","C","S","P",3,2,4,"Id","P","Other","Bad",0.6137,"H",1,"other"
7003,19,"male","R","Tra","C","S","P",3,2,5,"Id","S","Other","Good",0.6097,"H",1,"other"
7003,19,"male","R","Tra","C","S","P",3,2,6,"Id","Tra","Self","Good",0.7518,"J",1,"self"
7003,19,"male","R","Tra","C","S","P",3,2,7,"Id","C","Self","Bad",0.5099,"J",1,"self"
7003,19,"male","R","Tra","C","S","P",3,2,8,"Id","C","Self","Bad",0.8021,"J",1,"self"
7003,19,"male","R","Tra","C","S","P",3,2,9,"Id","Tra","Self","Good",0.7943,"J",1,"self"
7003,19,"male","R","Tra","C","S","P",3,2,10,"Id","S","Other","Good",0.6964,"H",1,"other"
7003,19,"male","R","Tra","C","S","P",3,2,11,"Id","P","Other","Bad",0.5045,"H",1,"other"
7003,19,"male","R","Tra","C","S","P",3,2,12,"Id","P","Other","Bad",0.5466,"H",1,"other"
7003,19,"male","R","Tra","C","S","P",3,2,13,"Id","S","Other","Good",0.6547,"H",1,"other"
7003,19,"male","R","Tra","C","S","P",3,2,15,"Id","Tra","Self","Good",0.5911,"J",1,"self"
7003,19,"male","R","Tra","C","S","P",3,2,16,"Id","P","Other","Bad",0.5832,"H",1,"other"
7003,19,"male","R","Tra","C","S","P",3,2,17,"Id","C","Self","Bad",0.5133,"J",1,"self"
7003,19,"male","R","Tra","C","S","P",3,2,18,"Id","S","Other","Good",0.7414,"H",1,"other"
7003,19,"male","R","Tra","C","S","P",3,2,19,"Id","C","Self","Bad",0.3856,"J",1,"self"
7003,19,"male","R","Tra","C","S","P",3,2,20,"Id","Tra","Self","Good",0.5416,"J",1,"self"
7003,19,"male","R","Tra","C","S","P",3,2,21,"Id","S","Other","Good",0.4658,"H",1,"other"
7003,19,"male","R","Tra","C","S","P",3,2,22,"Id","Tra","Self","Good",0.5399,"J",1,"self"
7003,19,"male","R","Tra","C","S","P",3,2,23,"Id","P","Other","Bad",0.5063,"H",1,"other"
7003,19,"male","R","Tra","C","S","P",3,2,24,"Id","S","Other","Good",0.5463,"H",1,"other"
7003,19,"male","R","Tra","C","S","P",3,3,1,"Id","P","Other","Bad",0.6824,"H",1,"other"
7003,19,"male","R","Tra","C","S","P",3,3,2,"Id","P","Other","Bad",0.6144,"H",1,"other"
7003,19,"male","R","Tra","C","S","P",3,3,3,"Id","Tra","Self","Good",0.5605,"J",1,"self"
7003,19,"male","R","Tra","C","S","P",3,3,4,"Id","Tra","Self","Good",0.5348,"J",1,"self"
7003,19,"male","R","Tra","C","S","P",3,3,5,"Id","S","Other","Good",0.6248,"H",1,"other"
7003,19,"male","R","Tra","C","S","P",3,3,7,"Id","C","Self","Bad",0.7451,"J",1,"self"
7003,19,"male","R","Tra","C","S","P",3,3,8,"Id","Tra","Self","Good",0.5072,"J",1,"self"
7003,19,"male","R","Tra","C","S","P",3,3,9,"Id","S","Other","Good",0.6293,"H",1,"other"
7003,19,"male","R","Tra","C","S","P",3,3,10,"Id","S","Other","Good",0.5975,"H",1,"other"
7003,19,"male","R","Tra","C","S","P",3,3,11,"Id","S","Other","Good",0.5336,"H",1,"other"
7003,19,"male","R","Tra","C","S","P",3,3,12,"Id","C","Self","Bad",0.3556,"J",1,"self"
7003,19,"male","R","Tra","C","S","P",3,3,13,"Id","P","Other","Bad",0.4339,"H",1,"other"
7003,19,"male","R","Tra","C","S","P",3,3,14,"Id","S","Other","Good",0.592,"H",1,"other"
7003,19,"male","R","Tra","C","S","P",3,3,15,"Id","C","Self","Bad",0.3922,"J",1,"self"
7003,19,"male","R","Tra","C","S","P",3,3,16,"Id","C","Self","Bad",0.4443,"J",1,"self"
7003,19,"male","R","Tra","C","S","P",3,3,17,"Id","S","Other","Good",0.5945,"H",1,"other"
7003,19,"male","R","Tra","C","S","P",3,3,18,"Id","P","Other","Bad",0.5306,"H",1,"other"
7003,19,"male","R","Tra","C","S","P",3,3,19,"Id","P","Other","Bad",0.9346,"H",1,"other"
7003,19,"male","R","Tra","C","S","P",3,3,20,"Id","Tra","Self","Good",0.5368,"J",1,"self"
7003,19,"male","R","Tra","C","S","P",3,3,21,"Id","Tra","Self","Good",0.3969,"J",1,"self"
7003,19,"male","R","Tra","C","S","P",3,3,22,"Id","C","Self","Bad",0.481,"J",1,"self"
7003,19,"male","R","Tra","C","S","P",3,3,23,"Id","C","Self","Bad",0.4492,"J",1,"self"
7003,19,"male","R","Tra","C","S","P",3,3,24,"Id","Tra","Self","Good",0.4933,"J",1,"self"
7003,19,"male","R","Tra","C","S","P",3,4,1,"Id","C","Self","Bad",0.5719,"J",1,"self"
7003,19,"male","R","Tra","C","S","P",3,4,2,"Id","S","Other","Good",0.3801,"H",1,"other"
7003,19,"male","R","Tra","C","S","P",3,4,3,"Id","C","Self","Bad",0.5942,"J",1,"self"
7003,19,"male","R","Tra","C","S","P",3,4,4,"Id","P","Other","Bad",0.5903,"H",1,"other"
7003,19,"male","R","Tra","C","S","P",3,4,5,"Id","S","Other","Good",0.5865,"H",1,"other"
7003,19,"male","R","Tra","C","S","P",3,4,6,"Id","P","Other","Bad",0.9367,"H",1,"other"
7003,19,"male","R","Tra","C","S","P",3,4,7,"Id","Tra","Self","Good",0.4907,"J",1,"self"
7003,19,"male","R","Tra","C","S","P",3,4,8,"Id","Tra","Self","Good",0.5049,"J",1,"self"
7003,19,"male","R","Tra","C","S","P",3,4,9,"Id","S","Other","Good",0.6051,"H",1,"other"
7003,19,"male","R","Tra","C","S","P",3,4,10,"Id","P","Other","Bad",0.9751,"H",1,"other"
7003,19,"male","R","Tra","C","S","P",3,4,11,"Id","P","Other","Bad",0.7993,"H",1,"other"
7003,19,"male","R","Tra","C","S","P",3,4,13,"Id","Tra","Self","Good",0.5415,"J",1,"self"
7003,19,"male","R","Tra","C","S","P",3,4,14,"Id","Tra","Self","Good",0.5857,"J",1,"self"
7003,19,"male","R","Tra","C","S","P",3,4,15,"Id","S","Other","Good",0.7538,"H",1,"other"
7003,19,"male","R","Tra","C","S","P",3,4,16,"Id","Tra","Self","Good",0.7499,"J",1,"self"
7003,19,"male","R","Tra","C","S","P",3,4,17,"Id","S","Other","Good",0.718,"H",1,"other"
7003,19,"male","R","Tra","C","S","P",3,4,18,"Id","C","Self","Bad",0.6381,"J",1,"self"
7003,19,"male","R","Tra","C","S","P",3,4,19,"Id","C","Self","Bad",0.6363,"J",1,"self"
7003,19,"male","R","Tra","C","S","P",3,4,20,"Id","C","Self","Bad",0.4185,"J",1,"self"
7003,19,"male","R","Tra","C","S","P",3,4,21,"Id","C","Self","Bad",0.3225,"J",1,"self"
7003,19,"male","R","Tra","C","S","P",3,4,22,"Id","P","Other","Bad",0.5527,"H",1,"other"
7003,19,"male","R","Tra","C","S","P",3,4,23,"Id","P","Other","Bad",0.4388,"H",1,"other"
7003,19,"male","R","Tra","C","S","P",3,4,24,"Id","Tra","Self","Good",0.5529,"J",1,"self"
7003,19,"male","R","Tra","C","S","P",3,5,1,"Id","Tra","Self","Good",0.5411,"J",1,"self"
7003,19,"male","R","Tra","C","S","P",3,5,2,"Id","Tra","Self","Good",0.5732,"J",1,"self"
7003,19,"male","R","Tra","C","S","P",3,5,3,"Id","Tra","Self","Good",0.5334,"J",1,"self"
7003,19,"male","R","Tra","C","S","P",3,5,4,"Id","P","Other","Bad",0.9174,"H",1,"other"
7003,19,"male","R","Tra","C","S","P",3,5,5,"Id","Tra","Self","Good",0.5696,"J",1,"self"
7003,19,"male","R","Tra","C","S","P",3,5,6,"Id","C","Self","Bad",0.9197,"J",1,"self"
7003,19,"male","R","Tra","C","S","P",3,5,7,"Id","S","Other","Good",0.824,"H",1,"other"
7003,19,"male","R","Tra","C","S","P",3,5,8,"Id","C","Self","Bad",0.582,"J",1,"self"
7003,19,"male","R","Tra","C","S","P",3,5,9,"Id","Tra","Self","Good",0.7461,"J",1,"self"
7003,19,"male","R","Tra","C","S","P",3,5,10,"Id","S","Other","Good",0.8322,"H",1,"other"
7003,19,"male","R","Tra","C","S","P",3,5,11,"Id","C","Self","Bad",0.6704,"J",1,"self"
7003,19,"male","R","Tra","C","S","P",3,5,12,"Id","P","Other","Bad",0.7624,"H",1,"other"
7003,19,"male","R","Tra","C","S","P",3,5,13,"Id","Tra","Self","Good",0.7806,"J",1,"self"
7003,19,"male","R","Tra","C","S","P",3,5,15,"Id","P","Other","Bad",0.6168,"H",1,"other"
7003,19,"male","R","Tra","C","S","P",3,5,16,"Id","C","Self","Bad",0.6949,"J",1,"self"
7003,19,"male","R","Tra","C","S","P",3,5,17,"Id","P","Other","Bad",0.6611,"H",1,"other"
7003,19,"male","R","Tra","C","S","P",3,5,18,"Id","C","Self","Bad",0.6412,"J",1,"self"
7003,19,"male","R","Tra","C","S","P",3,5,19,"Id","S","Other","Good",0.6173,"H",1,"other"
7003,19,"male","R","Tra","C","S","P",3,5,20,"Id","P","Other","Bad",0.6535,"H",1,"other"
7003,19,"male","R","Tra","C","S","P",3,5,21,"Id","S","Other","Good",0.8096,"H",1,"other"
7003,19,"male","R","Tra","C","S","P",3,5,22,"Id","S","Other","Good",0.5638,"H",1,"other"
7003,19,"male","R","Tra","C","S","P",3,5,23,"Id","S","Other","Good",0.534,"H",1,"other"
7003,19,"male","R","Tra","C","S","P",3,5,24,"Id","P","Other","Bad",0.636,"H",1,"other"
7003,19,"male","R","Tra","C","S","P",3,6,1,"Id","S","Other","Good",0.518,"H",1,"other"
7003,19,"male","R","Tra","C","S","P",3,6,2,"Id","C","Self","Bad",0.5941,"J",1,"self"
7003,19,"male","R","Tra","C","S","P",3,6,3,"Id","P","Other","Bad",0.5883,"H",1,"other"
7003,19,"male","R","Tra","C","S","P",3,6,4,"Id","C","Self","Bad",0.6084,"J",1,"self"
7003,19,"male","R","Tra","C","S","P",3,6,5,"Id","S","Other","Good",0.5585,"H",1,"other"
7003,19,"male","R","Tra","C","S","P",3,6,6,"Id","P","Other","Bad",0.5407,"H",1,"other"
7003,19,"male","R","Tra","C","S","P",3,6,7,"Id","S","Other","Good",0.5968,"H",1,"other"
7003,19,"male","R","Tra","C","S","P",3,6,8,"Id","C","Self","Bad",0.447,"J",1,"self"
7003,19,"male","R","Tra","C","S","P",3,6,9,"Id","S","Other","Good",0.577,"H",1,"other"
7003,19,"male","R","Tra","C","S","P",3,6,10,"Id","Tra","Self","Good",0.6272,"J",1,"self"
7003,19,"male","R","Tra","C","S","P",3,6,11,"Id","S","Other","Good",0.5294,"H",1,"other"
7003,19,"male","R","Tra","C","S","P",3,6,12,"Id","Tra","Self","Good",0.4914,"J",1,"self"
7003,19,"male","R","Tra","C","S","P",3,6,13,"Id","P","Other","Bad",0.5316,"H",1,"other"
7003,19,"male","R","Tra","C","S","P",3,6,14,"Id","P","Other","Bad",0.5877,"H",1,"other"
7003,19,"male","R","Tra","C","S","P",3,6,15,"Id","C","Self","Bad",0.6538,"J",1,"self"
7003,19,"male","R","Tra","C","S","P",3,6,16,"Id","Tra","Self","Good",0.64,"J",1,"self"
7003,19,"male","R","Tra","C","S","P",3,6,17,"Id","P","Other","Bad",0.5801,"H",1,"other"
7003,19,"male","R","Tra","C","S","P",3,6,18,"Id","S","Other","Good",0.5902,"H",1,"other"
7003,19,"male","R","Tra","C","S","P",3,6,19,"Id","Tra","Self","Good",0.6144,"J",1,"self"
7003,19,"male","R","Tra","C","S","P",3,6,20,"Id","P","Other","Bad",0.5525,"H",1,"other"
7003,19,"male","R","Tra","C","S","P",3,6,21,"Id","C","Self","Bad",0.5646,"J",1,"self"
7003,19,"male","R","Tra","C","S","P",3,6,22,"Id","Tra","Self","Good",0.6468,"J",1,"self"
7003,19,"male","R","Tra","C","S","P",3,6,23,"Id","C","Self","Bad",0.5309,"J",1,"self"
7003,19,"male","R","Tra","C","S","P",3,6,24,"Id","Tra","Self","Good",0.501,"J",1,"self"
7003,19,"male","R","Tra","C","S","P",5,1,1,"Id","Tra","Self","Good",0.9466,"J",1,"self"
7003,19,"male","R","Tra","C","S","P",5,1,2,"Id","P","Other","Bad",0.6148,"H",1,"other"
7003,19,"male","R","Tra","C","S","P",5,1,3,"Id","C","Self","Bad",0.5829,"J",1,"self"
7003,19,"male","R","Tra","C","S","P",5,1,4,"Id","P","Other","Bad",0.603,"H",1,"other"
7003,19,"male","R","Tra","C","S","P",5,1,5,"Id","C","Self","Bad",0.7431,"J",1,"self"
7003,19,"male","R","Tra","C","S","P",5,1,6,"Id","Tra","Self","Good",0.5813,"J",1,"self"
7003,19,"male","R","Tra","C","S","P",5,1,7,"Id","P","Other","Bad",0.6614,"H",1,"other"
7003,19,"male","R","Tra","C","S","P",5,1,8,"Id","C","Self","Bad",0.6495,"J",1,"self"
7003,19,"male","R","Tra","C","S","P",5,1,10,"Id","S","Other","Good",0.4058,"H",1,"other"
7003,19,"male","R","Tra","C","S","P",5,1,11,"Id","P","Other","Bad",0.588,"H",1,"other"
7003,19,"male","R","Tra","C","S","P",5,1,12,"Id","S","Other","Good",0.4041,"H",1,"other"
7003,19,"male","R","Tra","C","S","P",5,1,13,"Id","Tra","Self","Good",0.5922,"J",1,"self"
7003,19,"male","R","Tra","C","S","P",5,1,14,"Id","C","Self","Bad",0.5083,"J",1,"self"
7003,19,"male","R","Tra","C","S","P",5,1,15,"Id","Tra","Self","Good",0.5965,"J",1,"self"
7003,19,"male","R","Tra","C","S","P",5,1,17,"Id","S","Other","Good",0.4407,"H",1,"other"
7003,19,"male","R","Tra","C","S","P",5,1,18,"Id","Tra","Self","Good",0.7089,"J",1,"self"
7003,19,"male","R","Tra","C","S","P",5,1,19,"Id","C","Self","Bad",0.631,"J",1,"self"
7003,19,"male","R","Tra","C","S","P",5,1,20,"Id","C","Self","Bad",0.5511,"J",1,"self"
7003,19,"male","R","Tra","C","S","P",5,1,21,"Id","S","Other","Good",0.3392,"H",1,"other"
7003,19,"male","R","Tra","C","S","P",5,1,22,"Id","Tra","Self","Good",0.5174,"J",1,"self"
7003,19,"male","R","Tra","C","S","P",5,1,23,"Id","P","Other","Bad",0.6775,"H",1,"other"
7003,19,"male","R","Tra","C","S","P",5,1,24,"Id","P","Other","Bad",0.4456,"H",1,"other"
7003,19,"male","R","Tra","C","S","P",5,2,1,"Id","C","Self","Bad",0.5418,"J",1,"self"
7003,19,"male","R","Tra","C","S","P",5,2,2,"Id","P","Other","Bad",0.6359,"H",1,"other"
7003,19,"male","R","Tra","C","S","P",5,2,3,"Id","C","Self","Bad",0.5661,"J",1,"self"
7003,19,"male","R","Tra","C","S","P",5,2,4,"Id","Tra","Self","Good",0.7441,"J",1,"self"
7003,19,"male","R","Tra","C","S","P",5,2,5,"Id","P","Other","Bad",0.7802,"H",1,"other"
7003,19,"male","R","Tra","C","S","P",5,2,6,"Id","S","Other","Good",0.8584,"H",1,"other"
7003,19,"male","R","Tra","C","S","P",5,2,8,"Id","Tra","Self","Good",0.6287,"J",1,"self"
7003,19,"male","R","Tra","C","S","P",5,2,9,"Id","C","Self","Bad",0.5368,"J",1,"self"
7003,19,"male","R","Tra","C","S","P",5,2,10,"Id","Tra","Self","Good",0.5289,"J",1,"self"
7003,19,"male","R","Tra","C","S","P",5,2,11,"Id","C","Self","Bad",0.4971,"J",1,"self"
7003,19,"male","R","Tra","C","S","P",5,2,12,"Id","P","Other","Bad",0.5452,"H",1,"other"
7003,19,"male","R","Tra","C","S","P",5,2,13,"Id","S","Other","Good",0.6294,"H",1,"other"
7003,19,"male","R","Tra","C","S","P",5,2,14,"Id","C","Self","Bad",0.5474,"J",1,"self"
7003,19,"male","R","Tra","C","S","P",5,2,15,"Id","Tra","Self","Good",0.5396,"J",1,"self"
7003,19,"male","R","Tra","C","S","P",5,2,16,"Id","S","Other","Good",0.6656,"H",1,"other"
7003,19,"male","R","Tra","C","S","P",5,2,17,"Id","Tra","Self","Good",0.5378,"J",1,"self"
7003,19,"male","R","Tra","C","S","P",5,2,18,"Id","P","Other","Bad",0.8079,"H",1,"other"
7003,19,"male","R","Tra","C","S","P",5,2,19,"Id","S","Other","Good",0.7421,"H",1,"other"
7003,19,"male","R","Tra","C","S","P",5,2,20,"Id","S","Other","Good",0.4862,"H",1,"other"
7003,19,"male","R","Tra","C","S","P",5,2,21,"Id","S","Other","Good",0.3904,"H",1,"other"
7003,19,"male","R","Tra","C","S","P",5,2,22,"Id","C","Self","Bad",0.7645,"J",1,"self"
7003,19,"male","R","Tra","C","S","P",5,2,23,"Id","Tra","Self","Good",0.5086,"J",1,"self"
7003,19,"male","R","Tra","C","S","P",5,2,24,"Id","P","Other","Bad",0.8127,"H",1,"other"
7003,19,"male","R","Tra","C","S","P",5,3,2,"Id","S","Other","Good",0.591,"H",1,"other"
7003,19,"male","R","Tra","C","S","P",5,3,3,"Id","P","Other","Bad",0.5791,"H",1,"other"
7003,19,"male","R","Tra","C","S","P",5,3,4,"Id","S","Other","Good",0.6172,"H",1,"other"
7003,19,"male","R","Tra","C","S","P",5,3,5,"Id","C","Self","Bad",0.5153,"J",1,"self"
7003,19,"male","R","Tra","C","S","P",5,3,6,"Id","C","Self","Bad",0.3636,"J",1,"self"
7003,19,"male","R","Tra","C","S","P",5,3,7,"Id","Tra","Self","Good",0.4957,"J",1,"self"
7003,19,"male","R","Tra","C","S","P",5,3,8,"Id","S","Other","Good",0.5818,"H",1,"other"
7003,19,"male","R","Tra","C","S","P",5,3,9,"Id","P","Other","Bad",0.7399,"H",1,"other"
7003,19,"male","R","Tra","C","S","P",5,3,10,"Id","P","Other","Bad",0.492,"H",1,"other"
7003,19,"male","R","Tra","C","S","P",5,3,11,"Id","S","Other","Good",0.5941,"H",1,"other"
7003,19,"male","R","Tra","C","S","P",5,3,12,"Id","C","Self","Bad",0.4403,"J",1,"self"
7003,19,"male","R","Tra","C","S","P",5,3,13,"Id","Tra","Self","Good",0.5484,"J",1,"self"
7003,19,"male","R","Tra","C","S","P",5,3,14,"Id","Tra","Self","Good",0.5346,"J",1,"self"
7003,19,"male","R","Tra","C","S","P",5,3,15,"Id","S","Other","Good",0.7207,"H",1,"other"
7003,19,"male","R","Tra","C","S","P",5,3,16,"Id","Tra","Self","Good",0.5628,"J",1,"self"
7003,19,"male","R","Tra","C","S","P",5,3,17,"Id","C","Self","Bad",0.659,"J",1,"self"
7003,19,"male","R","Tra","C","S","P",5,3,18,"Id","Tra","Self","Good",0.5391,"J",1,"self"
7003,19,"male","R","Tra","C","S","P",5,3,19,"Id","C","Self","Bad",0.5292,"J",1,"self"
7003,19,"male","R","Tra","C","S","P",5,3,20,"Id","P","Other","Bad",0.6873,"H",1,"other"
7003,19,"male","R","Tra","C","S","P",5,3,21,"Id","S","Other","Good",0.8334,"H",1,"other"
7003,19,"male","R","Tra","C","S","P",5,3,22,"Id","P","Other","Bad",0.7136,"H",1,"other"
7003,19,"male","R","Tra","C","S","P",5,3,23,"Id","Tra","Self","Good",0.5677,"J",1,"self"
7003,19,"male","R","Tra","C","S","P",5,3,24,"Id","P","Other","Bad",0.5378,"H",1,"other"
7003,19,"male","R","Tra","C","S","P",5,4,1,"Id","C","Self","Bad",0.6731,"J",1,"self"
7003,19,"male","R","Tra","C","S","P",5,4,2,"Id","C","Self","Bad",0.4473,"J",1,"self"
7003,19,"male","R","Tra","C","S","P",5,4,3,"Id","P","Other","Bad",0.5615,"H",1,"other"
7003,19,"male","R","Tra","C","S","P",5,4,4,"Id","C","Self","Bad",0.5415,"J",1,"self"
7003,19,"male","R","Tra","C","S","P",5,4,5,"Id","Tra","Self","Good",0.8177,"J",1,"self"
7003,19,"male","R","Tra","C","S","P",5,4,6,"Id","P","Other","Bad",0.5278,"H",1,"other"
7003,19,"male","R","Tra","C","S","P",5,4,8,"Id","Tra","Self","Good",0.586,"J",1,"self"
7003,19,"male","R","Tra","C","S","P",5,4,9,"Id","S","Other","Good",0.4842,"H",1,"other"
7003,19,"male","R","Tra","C","S","P",5,4,10,"Id","Tra","Self","Good",0.6082,"J",1,"self"
7003,19,"male","R","Tra","C","S","P",5,4,11,"Id","C","Self","Bad",0.5944,"J",1,"self"
7003,19,"male","R","Tra","C","S","P",5,4,12,"Id","S","Other","Good",0.6325,"H",1,"other"
7003,19,"male","R","Tra","C","S","P",5,4,13,"Id","C","Self","Bad",0.5746,"J",1,"self"
7003,19,"male","R","Tra","C","S","P",5,4,14,"Id","C","Self","Bad",0.5508,"J",1,"self"
7003,19,"male","R","Tra","C","S","P",5,4,15,"Id","P","Other","Bad",0.7849,"H",1,"other"
7003,19,"male","R","Tra","C","S","P",5,4,16,"Id","Tra","Self","Good",0.589,"J",1,"self"
7003,19,"male","R","Tra","C","S","P",5,4,17,"Id","S","Other","Good",0.6632,"H",1,"other"
7003,19,"male","R","Tra","C","S","P",5,4,18,"Id","Tra","Self","Good",0.6973,"J",1,"self"
7003,19,"male","R","Tra","C","S","P",5,4,19,"Id","S","Other","Good",0.9415,"H",1,"other"
7003,19,"male","R","Tra","C","S","P",5,4,20,"Id","S","Other","Good",0.5215,"H",1,"other"
7003,19,"male","R","Tra","C","S","P",5,4,21,"Id","S","Other","Good",0.6577,"H",1,"other"
7003,19,"male","R","Tra","C","S","P",5,4,22,"Id","Tra","Self","Good",0.5818,"J",1,"self"
7003,19,"male","R","Tra","C","S","P",5,4,23,"Id","P","Other","Bad",0.6599,"H",1,"other"
7003,19,"male","R","Tra","C","S","P",5,4,24,"Id","P","Other","Bad",0.764,"H",1,"other"
7003,19,"male","R","Tra","C","S","P",5,5,1,"Id","C","Self","Bad",0.6422,"J",1,"self"
7003,19,"male","R","Tra","C","S","P",5,5,2,"Id","Tra","Self","Good",0.5284,"J",1,"self"
7003,19,"male","R","Tra","C","S","P",5,5,3,"Id","Tra","Self","Good",0.7664,"J",1,"self"
7003,19,"male","R","Tra","C","S","P",5,5,4,"Id","S","Other","Good",0.5946,"H",1,"other"
7003,19,"male","R","Tra","C","S","P",5,5,5,"Id","Tra","Self","Good",0.8807,"J",1,"self"
7003,19,"male","R","Tra","C","S","P",5,5,6,"Id","P","Other","Bad",0.6549,"H",1,"other"
7003,19,"male","R","Tra","C","S","P",5,5,7,"Id","S","Other","Good",0.623,"H",1,"other"
7003,19,"male","R","Tra","C","S","P",5,5,8,"Id","Tra","Self","Good",0.8851,"J",1,"self"
7003,19,"male","R","Tra","C","S","P",5,5,9,"Id","C","Self","Bad",0.6172,"J",1,"self"
7003,19,"male","R","Tra","C","S","P",5,5,10,"Id","S","Other","Good",0.7654,"H",1,"other"
7003,19,"male","R","Tra","C","S","P",5,5,11,"Id","P","Other","Bad",0.5315,"H",1,"other"
7003,19,"male","R","Tra","C","S","P",5,5,12,"Id","Tra","Self","Good",0.5876,"J",1,"self"
7003,19,"male","R","Tra","C","S","P",5,5,13,"Id","Tra","Self","Good",0.7237,"J",1,"self"
7003,19,"male","R","Tra","C","S","P",5,5,14,"Id","C","Self","Bad",0.6758,"J",1,"self"
7003,19,"male","R","Tra","C","S","P",5,5,15,"Id","S","Other","Good",0.56,"H",1,"other"
7003,19,"male","R","Tra","C","S","P",5,5,16,"Id","C","Self","Bad",0.6782,"J",1,"self"
7003,19,"male","R","Tra","C","S","P",5,5,17,"Id","P","Other","Bad",0.6662,"H",1,"other"
7003,19,"male","R","Tra","C","S","P",5,5,18,"Id","C","Self","Bad",0.6204,"J",1,"self"
7003,19,"male","R","Tra","C","S","P",5,5,19,"Id","P","Other","Bad",0.6945,"H",1,"other"
7003,19,"male","R","Tra","C","S","P",5,5,20,"Id","S","Other","Good",0.5787,"H",1,"other"
7003,19,"male","R","Tra","C","S","P",5,5,22,"Id","S","Other","Good",0.8169,"H",1,"other"
7003,19,"male","R","Tra","C","S","P",5,5,23,"Id","C","Self","Bad",0.713,"J",1,"self"
7003,19,"male","R","Tra","C","S","P",5,5,24,"Id","P","Other","Bad",0.8011,"H",1,"other"
7003,19,"male","R","Tra","C","S","P",5,6,1,"Id","P","Other","Bad",0.5972,"H",1,"other"
7003,19,"male","R","Tra","C","S","P",5,6,2,"Id","P","Other","Bad",0.6134,"H",1,"other"
7003,19,"male","R","Tra","C","S","P",5,6,3,"Id","P","Other","Bad",0.7576,"H",1,"other"
7003,19,"male","R","Tra","C","S","P",5,6,4,"Id","Tra","Self","Good",0.4397,"J",1,"self"
7003,19,"male","R","Tra","C","S","P",5,6,5,"Id","S","Other","Good",0.5998,"H",1,"other"
7003,19,"male","R","Tra","C","S","P",5,6,6,"Id","S","Other","Good",0.5999,"H",1,"other"
7003,19,"male","R","Tra","C","S","P",5,6,7,"Id","Tra","Self","Good",0.6921,"J",1,"self"
7003,19,"male","R","Tra","C","S","P",5,6,8,"Id","S","Other","Good",0.5062,"H",1,"other"
7003,19,"male","R","Tra","C","S","P",5,6,9,"Id","P","Other","Bad",0.5323,"H",1,"other"
7003,19,"male","R","Tra","C","S","P",5,6,10,"Id","P","Other","Bad",0.5865,"H",1,"other"
7003,19,"male","R","Tra","C","S","P",5,6,11,"Id","C","Self","Bad",0.6947,"J",1,"self"
7003,19,"male","R","Tra","C","S","P",5,6,12,"Id","S","Other","Good",0.6468,"H",1,"other"
7003,19,"male","R","Tra","C","S","P",5,6,13,"Id","C","Self","Bad",0.7148,"J",1,"self"
7003,19,"male","R","Tra","C","S","P",5,6,14,"Id","C","Self","Bad",0.579,"J",1,"self"
7003,19,"male","R","Tra","C","S","P",5,6,15,"Id","C","Self","Bad",0.4232,"J",1,"self"
7003,19,"male","R","Tra","C","S","P",5,6,16,"Id","C","Self","Bad",0.3713,"J",1,"self"
7003,19,"male","R","Tra","C","S","P",5,6,17,"Id","Tra","Self","Good",0.6674,"J",1,"self"
7003,19,"male","R","Tra","C","S","P",5,6,18,"Id","Tra","Self","Good",0.5355,"J",1,"self"
7003,19,"male","R","Tra","C","S","P",5,6,19,"Id","C","Self","Bad",0.4136,"J",1,"self"
7003,19,"male","R","Tra","C","S","P",5,6,20,"Id","S","Other","Good",0.4978,"H",1,"other"
7003,19,"male","R","Tra","C","S","P",5,6,21,"Id","P","Other","Bad",0.5179,"H",1,"other"
7003,19,"male","R","Tra","C","S","P",5,6,22,"Id","S","Other","Good",0.408,"H",1,"other"
7003,19,"male","R","Tra","C","S","P",5,6,23,"Id","Tra","Self","Good",0.5201,"J",1,"self"
7003,19,"male","R","Tra","C","S","P",5,6,24,"Id","Tra","Self","Good",0.5442,"J",1,"self"
7003,19,"male","R","Tra","C","S","P",6,1,1,"Val","S","Other","Good",0.9656,"Y",1,"moral"
7003,19,"male","R","Tra","C","S","P",6,1,2,"Val","P","Other","Bad",0.8336,"U",1,"immoral"
7003,19,"male","R","Tra","C","S","P",6,1,3,"Val","P","Other","Bad",0.6018,"U",1,"immoral"
7003,19,"male","R","Tra","C","S","P",6,1,4,"Val","S","Other","Good",0.662,"Y",1,"moral"
7003,19,"male","R","Tra","C","S","P",6,1,5,"Val","C","Self","Bad",0.5481,"U",1,"immoral"
7003,19,"male","R","Tra","C","S","P",6,1,6,"Val","S","Other","Good",0.6582,"Y",1,"moral"
7003,19,"male","R","Tra","C","S","P",6,1,7,"Val","C","Self","Bad",0.7523,"U",1,"immoral"
7003,19,"male","R","Tra","C","S","P",6,1,8,"Val","Tra","Self","Good",0.8985,"Y",1,"moral"
7003,19,"male","R","Tra","C","S","P",6,1,9,"Val","Tra","Self","Good",0.5306,"Y",1,"moral"
7003,19,"male","R","Tra","C","S","P",6,1,10,"Val","P","Other","Bad",0.5248,"U",1,"immoral"
7003,19,"male","R","Tra","C","S","P",6,1,11,"Val","S","Other","Good",0.5969,"Y",1,"moral"
7003,19,"male","R","Tra","C","S","P",6,1,12,"Val","Tra","Self","Good",0.553,"Y",1,"moral"
7003,19,"male","R","Tra","C","S","P",6,1,14,"Val","C","Self","Bad",0.5492,"U",1,"immoral"
7003,19,"male","R","Tra","C","S","P",6,1,15,"Val","P","Other","Bad",0.6514,"U",1,"immoral"
7003,19,"male","R","Tra","C","S","P",6,1,16,"Val","C","Self","Bad",0.7275,"U",1,"immoral"
7003,19,"male","R","Tra","C","S","P",6,1,17,"Val","C","Self","Bad",0.4456,"U",1,"immoral"
7003,19,"male","R","Tra","C","S","P",6,1,18,"Val","Tra","Self","Good",0.3558,"Y",1,"moral"
7003,19,"male","R","Tra","C","S","P",6,1,19,"Val","C","Self","Bad",0.7099,"U",1,"immoral"
7003,19,"male","R","Tra","C","S","P",6,1,20,"Val","Tra","Self","Good",0.57,"Y",1,"moral"
7003,19,"male","R","Tra","C","S","P",6,1,21,"Val","P","Other","Bad",0.5002,"U",1,"immoral"
7003,19,"male","R","Tra","C","S","P",6,1,22,"Val","S","Other","Good",0.5243,"Y",1,"moral"
7003,19,"male","R","Tra","C","S","P",6,1,23,"Val","Tra","Self","Good",0.5425,"Y",1,"moral"
7003,19,"male","R","Tra","C","S","P",6,1,24,"Val","P","Other","Bad",0.5946,"U",1,"immoral"
7003,19,"male","R","Tra","C","S","P",6,2,1,"Val","S","Other","Good",0.5307,"Y",1,"moral"
7003,19,"male","R","Tra","C","S","P",6,2,2,"Val","S","Other","Good",0.5368,"Y",1,"moral"
7003,19,"male","R","Tra","C","S","P",6,2,3,"Val","C","Self","Bad",0.557,"U",1,"immoral"
7003,19,"male","R","Tra","C","S","P",6,2,4,"Val","C","Self","Bad",0.5191,"U",1,"immoral"
7003,19,"male","R","Tra","C","S","P",6,2,5,"Val","Tra","Self","Good",0.4732,"Y",1,"moral"
7003,19,"male","R","Tra","C","S","P",6,2,6,"Val","Tra","Self","Good",0.6153,"Y",1,"moral"
7003,19,"male","R","Tra","C","S","P",6,2,7,"Val","C","Self","Bad",0.5336,"U",1,"immoral"
7003,19,"male","R","Tra","C","S","P",6,2,8,"Val","C","Self","Bad",0.4956,"U",1,"immoral"
7003,19,"male","R","Tra","C","S","P",6,2,9,"Val","S","Other","Good",0.6237,"Y",1,"moral"
7003,19,"male","R","Tra","C","S","P",6,2,10,"Val","P","Other","Bad",0.6899,"U",1,"immoral"
7003,19,"male","R","Tra","C","S","P",6,2,11,"Val","Tra","Self","Good",0.692,"Y",1,"moral"
7003,19,"male","R","Tra","C","S","P",6,2,12,"Val","Tra","Self","Good",0.7321,"Y",1,"moral"
7003,19,"male","R","Tra","C","S","P",6,2,13,"Val","Tra","Self","Good",0.7222,"Y",1,"moral"
7003,19,"male","R","Tra","C","S","P",6,2,14,"Val","C","Self","Bad",0.4924,"U",1,"immoral"
7003,19,"male","R","Tra","C","S","P",6,2,15,"Val","Tra","Self","Good",0.5325,"Y",1,"moral"
7003,19,"male","R","Tra","C","S","P",6,2,16,"Val","P","Other","Bad",0.4746,"U",1,"immoral"
7003,19,"male","R","Tra","C","S","P",6,2,17,"Val","P","Other","Bad",0.6148,"U",1,"immoral"
7003,19,"male","R","Tra","C","S","P",6,2,18,"Val","P","Other","Bad",0.4909,"U",1,"immoral"
7003,19,"male","R","Tra","C","S","P",6,2,19,"Val","S","Other","Good",0.5231,"Y",1,"moral"
7003,19,"male","R","Tra","C","S","P",6,2,20,"Val","S","Other","Good",0.7373,"Y",1,"moral"
7003,19,"male","R","Tra","C","S","P",6,2,21,"Val","P","Other","Bad",0.4633,"U",1,"immoral"
7003,19,"male","R","Tra","C","S","P",6,2,22,"Val","C","Self","Bad",0.6094,"U",1,"immoral"
7003,19,"male","R","Tra","C","S","P",6,2,23,"Val","P","Other","Bad",0.8975,"U",1,"immoral"
7003,19,"male","R","Tra","C","S","P",6,2,24,"Val","S","Other","Good",0.7796,"Y",1,"moral"
7003,19,"male","R","Tra","C","S","P",6,3,1,"Val","S","Other","Good",0.5798,"Y",1,"moral"
7003,19,"male","R","Tra","C","S","P",6,3,2,"Val","Tra","Self","Good",0.56,"Y",1,"moral"
7003,19,"male","R","Tra","C","S","P",6,3,3,"Val","S","Other","Good",0.5601,"Y",1,"moral"
7003,19,"male","R","Tra","C","S","P",6,3,4,"Val","S","Other","Good",0.3882,"Y",1,"moral"
7003,19,"male","R","Tra","C","S","P",6,3,5,"Val","Tra","Self","Good",0.7343,"Y",1,"moral"
7003,19,"male","R","Tra","C","S","P",6,3,6,"Val","Tra","Self","Good",0.6105,"Y",1,"moral"
7003,19,"male","R","Tra","C","S","P",6,3,7,"Val","P","Other","Bad",0.7085,"U",1,"immoral"
7003,19,"male","R","Tra","C","S","P",6,3,8,"Val","Tra","Self","Good",0.5467,"Y",1,"moral"
7003,19,"male","R","Tra","C","S","P",6,3,9,"Val","S","Other","Good",0.3888,"Y",1,"moral"
7003,19,"male","R","Tra","C","S","P",6,3,10,"Val","P","Other","Bad",0.5849,"U",1,"immoral"
7003,19,"male","R","Tra","C","S","P",6,3,11,"Val","S","Other","Good",0.5451,"Y",1,"moral"
7003,19,"male","R","Tra","C","S","P",6,3,12,"Val","P","Other","Bad",0.6412,"U",1,"immoral"
7003,19,"male","R","Tra","C","S","P",6,3,13,"Val","S","Other","Good",0.5074,"Y",1,"moral"
7003,19,"male","R","Tra","C","S","P",6,3,14,"Val","C","Self","Bad",0.5095,"U",1,"immoral"
7003,19,"male","R","Tra","C","S","P",6,3,15,"Val","Tra","Self","Good",0.7196,"Y",1,"moral"
7003,19,"male","R","Tra","C","S","P",6,3,16,"Val","C","Self","Bad",0.6277,"U",1,"immoral"
7003,19,"male","R","Tra","C","S","P",6,3,17,"Val","C","Self","Bad",0.5059,"U",1,"immoral"
7003,19,"male","R","Tra","C","S","P",6,3,18,"Val","C","Self","Bad",1.012,"U",1,"immoral"
7003,19,"male","R","Tra","C","S","P",6,3,19,"Val","P","Other","Bad",0.7341,"U",1,"immoral"
7003,19,"male","R","Tra","C","S","P",6,3,20,"Val","Tra","Self","Good",0.5362,"Y",1,"moral"
7003,19,"male","R","Tra","C","S","P",6,3,21,"Val","C","Self","Bad",0.7443,"U",1,"immoral"
7003,19,"male","R","Tra","C","S","P",6,3,22,"Val","C","Self","Bad",0.8485,"U",1,"immoral"
7003,19,"male","R","Tra","C","S","P",6,3,23,"Val","P","Other","Bad",0.7866,"U",1,"immoral"
7003,19,"male","R","Tra","C","S","P",6,3,24,"Val","P","Other","Bad",0.4267,"U",1,"immoral"
7003,19,"male","R","Tra","C","S","P",6,4,1,"Val","P","Other","Bad",0.6292,"U",1,"immoral"
7003,19,"male","R","Tra","C","S","P",6,4,2,"Val","S","Other","Good",0.4734,"Y",1,"moral"
7003,19,"male","R","Tra","C","S","P",6,4,3,"Val","P","Other","Bad",0.8735,"U",1,"immoral"
7003,19,"male","R","Tra","C","S","P",6,4,4,"Val","C","Self","Bad",0.7916,"U",1,"immoral"
7003,19,"male","R","Tra","C","S","P",6,4,5,"Val","C","Self","Bad",0.5978,"U",1,"immoral"
7003,19,"male","R","Tra","C","S","P",6,4,6,"Val","Tra","Self","Good",0.5579,"Y",1,"moral"
7003,19,"male","R","Tra","C","S","P",6,4,7,"Val","S","Other","Good",0.524,"Y",1,"moral"
7003,19,"male","R","Tra","C","S","P",6,4,8,"Val","C","Self","Bad",0.6782,"U",1,"immoral"
7003,19,"male","R","Tra","C","S","P",6,4,9,"Val","Tra","Self","Good",0.5923,"Y",1,"moral"
7003,19,"male","R","Tra","C","S","P",6,4,10,"Val","Tra","Self","Good",0.5704,"Y",1,"moral"
7003,19,"male","R","Tra","C","S","P",6,4,11,"Val","Tra","Self","Good",0.4406,"Y",1,"moral"
7003,19,"male","R","Tra","C","S","P",6,4,12,"Val","P","Other","Bad",0.5287,"U",1,"immoral"
7003,19,"male","R","Tra","C","S","P",6,4,13,"Val","P","Other","Bad",0.6748,"U",1,"immoral"
7003,19,"male","R","Tra","C","S","P",6,4,14,"Val","P","Other","Bad",0.627,"U",1,"immoral"
7003,19,"male","R","Tra","C","S","P",6,4,15,"Val","S","Other","Good",0.4771,"Y",1,"moral"
7003,19,"male","R","Tra","C","S","P",6,4,16,"Val","Tra","Self","Good",0.4432,"Y",1,"moral"
7003,19,"male","R","Tra","C","S","P",6,4,17,"Val","S","Other","Good",0.5953,"Y",1,"moral"
7003,19,"male","R","Tra","C","S","P",6,4,18,"Val","C","Self","Bad",0.6514,"U",1,"immoral"
7003,19,"male","R","Tra","C","S","P",6,4,19,"Val","S","Other","Good",0.7537,"Y",1,"moral"
7003,19,"male","R","Tra","C","S","P",6,4,20,"Val","S","Other","Good",0.4557,"Y",1,"moral"
7003,19,"male","R","Tra","C","S","P",6,4,21,"Val","C","Self","Bad",0.5659,"U",1,"immoral"
7003,19,"male","R","Tra","C","S","P",6,4,22,"Val","C","Self","Bad",0.4279,"U",1,"immoral"
7003,19,"male","R","Tra","C","S","P",6,4,23,"Val","Tra","Self","Good",0.5361,"Y",1,"moral"
7003,19,"male","R","Tra","C","S","P",6,4,24,"Val","P","Other","Bad",0.5962,"U",1,"immoral"
7003,19,"male","R","Tra","C","S","P",6,5,1,"Val","S","Other","Good",0.6004,"Y",1,"moral"
7003,19,"male","R","Tra","C","S","P",6,5,2,"Val","Tra","Self","Good",0.5845,"Y",1,"moral"
7003,19,"male","R","Tra","C","S","P",6,5,3,"Val","S","Other","Good",0.5806,"Y",1,"moral"
7003,19,"male","R","Tra","C","S","P",6,5,4,"Val","S","Other","Good",0.3828,"Y",1,"moral"
7003,19,"male","R","Tra","C","S","P",6,5,5,"Val","Tra","Self","Good",0.5508,"Y",1,"moral"
7003,19,"male","R","Tra","C","S","P",6,5,6,"Val","C","Self","Bad",0.829,"U",1,"immoral"
7003,19,"male","R","Tra","C","S","P",6,5,7,"Val","C","Self","Bad",0.7771,"U",1,"immoral"
7003,19,"male","R","Tra","C","S","P",6,5,8,"Val","Tra","Self","Good",0.5172,"Y",1,"moral"
7003,19,"male","R","Tra","C","S","P",6,5,9,"Val","P","Other","Bad",0.6194,"U",1,"immoral"
7003,19,"male","R","Tra","C","S","P",6,5,10,"Val","P","Other","Bad",0.5796,"U",1,"immoral"
7003,19,"male","R","Tra","C","S","P",6,5,11,"Val","Tra","Self","Good",0.5556,"Y",1,"moral"
7003,19,"male","R","Tra","C","S","P",6,5,12,"Val","S","Other","Good",0.5818,"Y",1,"moral"
7003,19,"male","R","Tra","C","S","P",6,5,13,"Val","C","Self","Bad",0.6078,"U",1,"immoral"
7003,19,"male","R","Tra","C","S","P",6,5,14,"Val","S","Other","Good",0.57,"Y",1,"moral"
7003,19,"male","R","Tra","C","S","P",6,5,15,"Val","Tra","Self","Good",0.6527,"Y",1,"moral"
7003,19,"male","R","Tra","C","S","P",6,5,16,"Val","S","Other","Good",0.5503,"Y",1,"moral"
7003,19,"male","R","Tra","C","S","P",6,5,17,"Val","C","Self","Bad",0.5324,"U",1,"immoral"
7003,19,"male","R","Tra","C","S","P",6,5,18,"Val","P","Other","Bad",0.7745,"U",1,"immoral"
7003,19,"male","R","Tra","C","S","P",6,5,19,"Val","C","Self","Bad",0.9747,"U",1,"immoral"
7003,19,"male","R","Tra","C","S","P",6,5,20,"Val","P","Other","Bad",0.7809,"U",1,"immoral"
7003,19,"male","R","Tra","C","S","P",6,5,21,"Val","C","Self","Bad",0.719,"U",1,"immoral"
7003,19,"male","R","Tra","C","S","P",6,5,22,"Val","Tra","Self","Good",0.5371,"Y",1,"moral"
7003,19,"male","R","Tra","C","S","P",6,5,23,"Val","P","Other","Bad",0.5672,"U",1,"immoral"
7003,19,"male","R","Tra","C","S","P",6,5,24,"Val","P","Other","Bad",0.7333,"U",1,"immoral"
7003,19,"male","R","Tra","C","S","P",6,6,1,"Val","Tra","Self","Good",0.5494,"Y",1,"moral"
7003,19,"male","R","Tra","C","S","P",6,6,2,"Val","Tra","Self","Good",0.5235,"Y",1,"moral"
7003,19,"male","R","Tra","C","S","P",6,6,3,"Val","P","Other","Bad",0.5657,"U",1,"immoral"
7003,19,"male","R","Tra","C","S","P",6,6,4,"Val","P","Other","Bad",0.5179,"U",1,"immoral"
7003,19,"male","R","Tra","C","S","P",6,6,5,"Val","Tra","Self","Good",0.552,"Y",1,"moral"
7003,19,"male","R","Tra","C","S","P",6,6,6,"Val","Tra","Self","Good",0.5881,"Y",1,"moral"
7003,19,"male","R","Tra","C","S","P",6,6,7,"Val","S","Other","Good",0.5742,"Y",1,"moral"
7003,19,"male","R","Tra","C","S","P",6,6,8,"Val","C","Self","Bad",0.6363,"U",1,"immoral"
7003,19,"male","R","Tra","C","S","P",6,6,9,"Val","C","Self","Bad",0.4984,"U",1,"immoral"
7003,19,"male","R","Tra","C","S","P",6,6,10,"Val","Tra","Self","Good",0.7426,"Y",1,"moral"
7003,19,"male","R","Tra","C","S","P",6,6,11,"Val","C","Self","Bad",0.5434,"U",1,"immoral"
7003,19,"male","R","Tra","C","S","P",6,6,12,"Val","S","Other","Good",0.4868,"Y",1,"moral"
7003,19,"male","R","Tra","C","S","P",6,6,13,"Val","C","Self","Bad",0.565,"U",1,"immoral"
7003,19,"male","R","Tra","C","S","P",6,6,14,"Val","S","Other","Good",0.497,"Y",1,"moral"
7003,19,"male","R","Tra","C","S","P",6,6,15,"Val","P","Other","Bad",0.6532,"U",1,"immoral"
7003,19,"male","R","Tra","C","S","P",6,6,16,"Val","P","Other","Bad",0.6614,"U",1,"immoral"
7003,19,"male","R","Tra","C","S","P",6,6,17,"Val","S","Other","Good",0.5235,"Y",1,"moral"
7003,19,"male","R","Tra","C","S","P",6,6,18,"Val","C","Self","Bad",0.5416,"U",1,"immoral"
7003,19,"male","R","Tra","C","S","P",6,6,19,"Val","S","Other","Good",0.5558,"Y",1,"moral"
7003,19,"male","R","Tra","C","S","P",6,6,20,"Val","P","Other","Bad",0.6079,"U",1,"immoral"
7003,19,"male","R","Tra","C","S","P",6,6,21,"Val","Tra","Self","Good",0.5501,"Y",1,"moral"
7003,19,"male","R","Tra","C","S","P",6,6,22,"Val","S","Other","Good",0.5741,"Y",1,"moral"
7003,19,"male","R","Tra","C","S","P",6,6,23,"Val","P","Other","Bad",0.5203,"U",1,"immoral"
7003,19,"male","R","Tra","C","S","P",6,6,24,"Val","C","Self","Bad",0.7624,"U",1,"immoral"
7004,22,"female","R","C","S","P","Tra",2,1,1,"Id","P","Other","Good",1.0189,"J",1,"other"
7004,22,"female","R","C","S","P","Tra",2,1,2,"Id","P","Other","Good",0.5812,"J",1,"other"
7004,22,"female","R","C","S","P","Tra",2,1,3,"Id","S","Self","Bad",0.5534,"H",1,"self"
7004,22,"female","R","C","S","P","Tra",2,1,4,"Id","P","Other","Good",0.4435,"J",1,"other"
7004,22,"female","R","C","S","P","Tra",2,1,5,"Id","P","Other","Good",0.3936,"J",1,"other"
7004,22,"female","R","C","S","P","Tra",2,1,6,"Id","Tra","Other","Bad",0.7039,"J",1,"other"
7004,22,"female","R","C","S","P","Tra",2,1,8,"Id","P","Other","Good",0.8661,"J",1,"other"
7004,22,"female","R","C","S","P","Tra",2,1,9,"Id","Tra","Other","Bad",0.5683,"J",1,"other"
7004,22,"female","R","C","S","P","Tra",2,1,10,"Id","S","Self","Bad",0.4804,"H",1,"self"
7004,22,"female","R","C","S","P","Tra",2,1,11,"Id","Tra","Other","Bad",0.5066,"J",1,"other"
7004,22,"female","R","C","S","P","Tra",2,1,12,"Id","S","Self","Bad",0.4348,"H",1,"self"
7004,22,"female","R","C","S","P","Tra",2,1,13,"Id","Tra","Other","Bad",0.4629,"J",1,"other"
7004,22,"female","R","C","S","P","Tra",2,1,14,"Id","C","Self","Good",0.7051,"H",1,"self"
7004,22,"female","R","C","S","P","Tra",2,1,15,"Id","P","Other","Good",0.4712,"J",1,"other"
7004,22,"female","R","C","S","P","Tra",2,1,16,"Id","C","Self","Good",0.6274,"H",1,"self"
7004,22,"female","R","C","S","P","Tra",2,1,17,"Id","C","Self","Good",0.5696,"H",1,"self"
7004,22,"female","R","C","S","P","Tra",2,1,18,"Id","Tra","Other","Bad",0.4877,"J",1,"other"
7004,22,"female","R","C","S","P","Tra",2,1,19,"Id","C","Self","Good",0.5,"H",1,"self"
7004,22,"female","R","C","S","P","Tra",2,1,20,"Id","S","Self","Bad",0.494,"H",1,"self"
7004,22,"female","R","C","S","P","Tra",2,1,21,"Id","Tra","Other","Bad",0.3882,"J",1,"other"
7004,22,"female","R","C","S","P","Tra",2,1,22,"Id","S","Self","Bad",0.5904,"H",1,"self"
7004,22,"female","R","C","S","P","Tra",2,1,24,"Id","C","Self","Good",0.5286,"H",1,"self"
7004,22,"female","R","C","S","P","Tra",2,2,1,"Id","C","Self","Good",0.4609,"H",1,"self"
7004,22,"female","R","C","S","P","Tra",2,2,2,"Id","Tra","Other","Bad",0.371,"J",1,"other"
7004,22,"female","R","C","S","P","Tra",2,2,3,"Id","Tra","Other","Bad",0.5572,"J",1,"other"
7004,22,"female","R","C","S","P","Tra",2,2,4,"Id","S","Self","Bad",0.5493,"H",1,"self"
7004,22,"female","R","C","S","P","Tra",2,2,5,"Id","C","Self","Good",0.6635,"H",1,"self"
7004,22,"female","R","C","S","P","Tra",2,2,6,"Id","S","Self","Bad",0.5396,"H",1,"self"
7004,22,"female","R","C","S","P","Tra",2,2,7,"Id","S","Self","Bad",0.3938,"H",1,"self"
7004,22,"female","R","C","S","P","Tra",2,2,8,"Id","C","Self","Good",0.408,"H",1,"self"
7004,22,"female","R","C","S","P","Tra",2,2,9,"Id","C","Self","Good",0.4462,"H",1,"self"
7004,22,"female","R","C","S","P","Tra",2,2,11,"Id","Tra","Other","Bad",0.4985,"J",1,"other"
7004,22,"female","R","C","S","P","Tra",2,2,12,"Id","S","Self","Bad",0.3726,"H",1,"self"
7004,22,"female","R","C","S","P","Tra",2,2,13,"Id","P","Other","Good",0.4909,"J",1,"other"
7004,22,"female","R","C","S","P","Tra",2,2,14,"Id","C","Self","Good",0.4371,"H",1,"self"
7004,22,"female","R","C","S","P","Tra",2,2,15,"Id","Tra","Other","Bad",0.5653,"J",1,"other"
7004,22,"female","R","C","S","P","Tra",2,2,16,"Id","Tra","Other","Bad",0.5614,"J",1,"other"
7004,22,"female","R","C","S","P","Tra",2,2,17,"Id","P","Other","Good",0.9195,"J",1,"other"
7004,22,"female","R","C","S","P","Tra",2,2,18,"Id","S","Self","Bad",0.4577,"H",1,"self"
7004,22,"female","R","C","S","P","Tra",2,2,19,"Id","P","Other","Good",0.5818,"J",1,"other"
7004,22,"female","R","C","S","P","Tra",2,2,20,"Id","C","Self","Good",0.4458,"H",1,"self"
7004,22,"female","R","C","S","P","Tra",2,2,21,"Id","P","Other","Good",0.5562,"J",1,"other"
7004,22,"female","R","C","S","P","Tra",2,2,22,"Id","Tra","Other","Bad",0.7764,"J",1,"other"
7004,22,"female","R","C","S","P","Tra",2,2,23,"Id","P","Other","Good",0.7725,"J",1,"other"
7004,22,"female","R","C","S","P","Tra",2,2,24,"Id","S","Self","Bad",0.3346,"H",1,"self"
7004,22,"female","R","C","S","P","Tra",2,3,2,"Id","Tra","Other","Bad",0.4491,"J",1,"other"
7004,22,"female","R","C","S","P","Tra",2,3,3,"Id","P","Other","Good",0.8032,"J",1,"other"
7004,22,"female","R","C","S","P","Tra",2,3,4,"Id","C","Self","Good",0.5333,"H",1,"self"
7004,22,"female","R","C","S","P","Tra",2,3,5,"Id","Tra","Other","Bad",0.4734,"J",1,"other"
7004,22,"female","R","C","S","P","Tra",2,3,6,"Id","Tra","Other","Bad",0.5857,"J",1,"other"
7004,22,"female","R","C","S","P","Tra",2,3,7,"Id","P","Other","Good",0.5718,"J",1,"other"
7004,22,"female","R","C","S","P","Tra",2,3,8,"Id","C","Self","Good",0.4079,"H",1,"self"
7004,22,"female","R","C","S","P","Tra",2,3,9,"Id","P","Other","Good",0.4501,"J",1,"other"
7004,22,"female","R","C","S","P","Tra",2,3,10,"Id","C","Self","Good",0.5364,"H",1,"self"
7004,22,"female","R","C","S","P","Tra",2,3,11,"Id","C","Self","Good",0.6085,"H",1,"self"
7004,22,"female","R","C","S","P","Tra",2,3,13,"Id","S","Self","Bad",0.4828,"H",1,"self"
7004,22,"female","R","C","S","P","Tra",2,3,14,"Id","Tra","Other","Bad",0.4849,"J",1,"other"
7004,22,"female","R","C","S","P","Tra",2,3,15,"Id","S","Self","Bad",0.5551,"H",1,"self"
7004,22,"female","R","C","S","P","Tra",2,3,16,"Id","C","Self","Good",0.7293,"H",1,"self"
7004,22,"female","R","C","S","P","Tra",2,3,17,"Id","S","Self","Bad",0.7875,"H",1,"self"
7004,22,"female","R","C","S","P","Tra",2,3,18,"Id","Tra","Other","Bad",0.4396,"J",1,"other"
7004,22,"female","R","C","S","P","Tra",2,3,19,"Id","C","Self","Good",0.4858,"H",1,"self"
7004,22,"female","R","C","S","P","Tra",2,3,20,"Id","P","Other","Good",0.458,"J",1,"other"
7004,22,"female","R","C","S","P","Tra",2,3,21,"Id","P","Other","Good",0.6262,"J",1,"other"
7004,22,"female","R","C","S","P","Tra",2,3,22,"Id","P","Other","Good",0.4663,"J",1,"other"
7004,22,"female","R","C","S","P","Tra",2,3,23,"Id","Tra","Other","Bad",0.4845,"J",1,"other"
7004,22,"female","R","C","S","P","Tra",2,4,1,"Id","C","Self","Good",0.4571,"H",1,"self"
7004,22,"female","R","C","S","P","Tra",2,4,2,"Id","P","Other","Good",0.4413,"J",1,"other"
7004,22,"female","R","C","S","P","Tra",2,4,3,"Id","S","Self","Bad",0.3295,"H",1,"self"
7004,22,"female","R","C","S","P","Tra",2,4,4,"Id","P","Other","Good",0.2637,"J",1,"other"
7004,22,"female","R","C","S","P","Tra",2,4,5,"Id","C","Self","Good",0.5897,"H",1,"self"
7004,22,"female","R","C","S","P","Tra",2,4,7,"Id","S","Self","Bad",0.5821,"H",1,"self"
7004,22,"female","R","C","S","P","Tra",2,4,9,"Id","S","Self","Bad",0.7144,"H",1,"self"
7004,22,"female","R","C","S","P","Tra",2,4,10,"Id","C","Self","Good",0.6365,"H",1,"self"
7004,22,"female","R","C","S","P","Tra",2,4,11,"Id","C","Self","Good",0.5547,"H",1,"self"
7004,22,"female","R","C","S","P","Tra",2,4,12,"Id","C","Self","Good",0.3208,"H",1,"self"
7004,22,"female","R","C","S","P","Tra",2,4,13,"Id","Tra","Other","Bad",0.479,"J",1,"other"
7004,22,"female","R","C","S","P","Tra",2,4,14,"Id","Tra","Other","Bad",0.4352,"J",1,"other"
7004,22,"female","R","C","S","P","Tra",2,4,15,"Id","P","Other","Good",0.5334,"J",1,"other"
7004,22,"female","R","C","S","P","Tra",2,4,16,"Id","S","Self","Bad",0.7815,"H",1,"self"
7004,22,"female","R","C","S","P","Tra",2,4,17,"Id","Tra","Other","Bad",0.5957,"J",1,"other"
7004,22,"female","R","C","S","P","Tra",2,4,18,"Id","Tra","Other","Bad",0.4518,"J",1,"other"
7004,22,"female","R","C","S","P","Tra",2,4,19,"Id","P","Other","Good",0.514,"J",1,"other"
7004,22,"female","R","C","S","P","Tra",2,4,20,"Id","P","Other","Good",0.3822,"J",1,"other"
7004,22,"female","R","C","S","P","Tra",2,4,21,"Id","C","Self","Good",0.4743,"H",1,"self"
7004,22,"female","R","C","S","P","Tra",2,4,23,"Id","P","Other","Good",0.4407,"J",1,"other"
7004,22,"female","R","C","S","P","Tra",2,4,24,"Id","Tra","Other","Bad",0.4629,"J",1,"other"
7004,22,"female","R","C","S","P","Tra",2,5,1,"Id","C","Self","Good",0.4991,"H",1,"self"
7004,22,"female","R","C","S","P","Tra",2,5,3,"Id","S","Self","Bad",0.4594,"H",1,"self"
7004,22,"female","R","C","S","P","Tra",2,5,4,"Id","S","Self","Bad",0.5195,"H",1,"self"
7004,22,"female","R","C","S","P","Tra",2,5,5,"Id","P","Other","Good",0.5316,"J",1,"other"
7004,22,"female","R","C","S","P","Tra",2,5,6,"Id","P","Other","Good",0.4238,"J",1,"other"
7004,22,"female","R","C","S","P","Tra",2,5,7,"Id","S","Self","Bad",0.716,"H",1,"self"
7004,22,"female","R","C","S","P","Tra",2,5,8,"Id","P","Other","Good",0.7041,"J",1,"other"
7004,22,"female","R","C","S","P","Tra",2,5,9,"Id","P","Other","Good",0.4983,"J",1,"other"
7004,22,"female","R","C","S","P","Tra",2,5,10,"Id","C","Self","Good",0.6945,"H",1,"self"
7004,22,"female","R","C","S","P","Tra",2,5,11,"Id","Tra","Other","Bad",0.6007,"J",1,"other"
7004,22,"female","R","C","S","P","Tra",2,5,12,"Id","Tra","Other","Bad",0.4988,"J",1,"other"
7004,22,"female","R","C","S","P","Tra",2,5,13,"Id","S","Self","Bad",0.7889,"H",1,"self"
7004,22,"female","R","C","S","P","Tra",2,5,15,"Id","Tra","Other","Bad",0.5753,"J",1,"other"
7004,22,"female","R","C","S","P","Tra",2,5,16,"Id","P","Other","Good",0.6875,"J",1,"other"
7004,22,"female","R","C","S","P","Tra",2,5,17,"Id","C","Self","Good",0.4897,"H",1,"self"
7004,22,"female","R","C","S","P","Tra",2,5,18,"Id","C","Self","Good",0.6158,"H",1,"self"
7004,22,"female","R","C","S","P","Tra",2,5,19,"Id","Tra","Other","Bad",0.428,"J",1,"other"
7004,22,"female","R","C","S","P","Tra",2,5,20,"Id","S","Self","Bad",0.5342,"H",1,"self"
7004,22,"female","R","C","S","P","Tra",2,5,21,"Id","Tra","Other","Bad",0.4763,"J",1,"other"
7004,22,"female","R","C","S","P","Tra",2,5,22,"Id","P","Other","Good",0.7065,"J",1,"other"
7004,22,"female","R","C","S","P","Tra",2,5,23,"Id","S","Self","Bad",0.4646,"H",1,"self"
7004,22,"female","R","C","S","P","Tra",2,5,24,"Id","C","Self","Good",0.3868,"H",1,"self"
7004,22,"female","R","C","S","P","Tra",2,6,1,"Id","C","Self","Good",0.3509,"H",1,"self"
7004,22,"female","R","C","S","P","Tra",2,6,2,"Id","P","Other","Good",0.3532,"J",1,"other"
7004,22,"female","R","C","S","P","Tra",2,6,3,"Id","Tra","Other","Bad",0.5313,"J",1,"other"
7004,22,"female","R","C","S","P","Tra",2,6,4,"Id","P","Other","Good",0.5234,"J",1,"other"
7004,22,"female","R","C","S","P","Tra",2,6,5,"Id","S","Self","Bad",0.6755,"H",1,"self"
7004,22,"female","R","C","S","P","Tra",2,6,6,"Id","P","Other","Good",0.7837,"J",1,"other"
7004,22,"female","R","C","S","P","Tra",2,6,7,"Id","Tra","Other","Bad",0.3478,"J",1,"other"
7004,22,"female","R","C","S","P","Tra",2,6,8,"Id","P","Other","Good",0.4801,"J",1,"other"
7004,22,"female","R","C","S","P","Tra",2,6,9,"Id","Tra","Other","Bad",0.4722,"J",1,"other"
7004,22,"female","R","C","S","P","Tra",2,6,11,"Id","C","Self","Good",0.4106,"H",1,"self"
7004,22,"female","R","C","S","P","Tra",2,6,12,"Id","C","Self","Good",0.5586,"H",1,"self"
7004,22,"female","R","C","S","P","Tra",2,6,13,"Id","Tra","Other","Bad",0.4028,"J",1,"other"
7004,22,"female","R","C","S","P","Tra",2,6,14,"Id","S","Self","Bad",0.487,"H",1,"self"
7004,22,"female","R","C","S","P","Tra",2,6,15,"Id","S","Self","Bad",0.5371,"H",1,"self"
7004,22,"female","R","C","S","P","Tra",2,6,16,"Id","C","Self","Good",0.6893,"H",1,"self"
7004,22,"female","R","C","S","P","Tra",2,6,17,"Id","P","Other","Good",0.7114,"J",1,"other"
7004,22,"female","R","C","S","P","Tra",2,6,18,"Id","C","Self","Good",0.5096,"H",1,"self"
7004,22,"female","R","C","S","P","Tra",2,6,20,"Id","Tra","Other","Bad",0.4499,"J",1,"other"
7004,22,"female","R","C","S","P","Tra",2,6,21,"Id","S","Self","Bad",0.5481,"H",1,"self"
7004,22,"female","R","C","S","P","Tra",2,6,22,"Id","S","Self","Bad",0.5603,"H",1,"self"
7004,22,"female","R","C","S","P","Tra",2,6,23,"Id","P","Other","Good",0.4205,"J",1,"other"
7004,22,"female","R","C","S","P","Tra",2,6,24,"Id","Tra","Other","Bad",0.5046,"J",1,"other"
7004,22,"female","R","C","S","P","Tra",3,1,1,"Val","P","Other","Good",0.8826,"Y",1,"moral"
7004,22,"female","R","C","S","P","Tra",3,1,2,"Val","S","Self","Bad",0.9048,"U",1,"immoral"
7004,22,"female","R","C","S","P","Tra",3,1,3,"Val","S","Self","Bad",0.543,"U",1,"immoral"
7004,22,"female","R","C","S","P","Tra",3,1,4,"Val","C","Self","Good",0.5412,"Y",1,"moral"
7004,22,"female","R","C","S","P","Tra",3,1,5,"Val","S","Self","Bad",0.6313,"U",1,"immoral"
7004,22,"female","R","C","S","P","Tra",3,1,6,"Val","S","Self","Bad",0.6195,"U",1,"immoral"
7004,22,"female","R","C","S","P","Tra",3,1,7,"Val","Tra","Other","Bad",0.7496,"U",1,"immoral"
7004,22,"female","R","C","S","P","Tra",3,1,8,"Val","Tra","Other","Bad",0.6378,"U",1,"immoral"
7004,22,"female","R","C","S","P","Tra",3,1,9,"Val","S","Self","Bad",0.602,"U",1,"immoral"
7004,22,"female","R","C","S","P","Tra",3,1,10,"Val","P","Other","Good",0.8281,"Y",1,"moral"
7004,22,"female","R","C","S","P","Tra",3,1,11,"Val","C","Self","Good",0.6003,"Y",1,"moral"
7004,22,"female","R","C","S","P","Tra",3,1,12,"Val","C","Self","Good",0.4225,"Y",1,"moral"
7004,22,"female","R","C","S","P","Tra",3,1,13,"Val","Tra","Other","Bad",0.5467,"U",1,"immoral"
7004,22,"female","R","C","S","P","Tra",3,1,14,"Val","Tra","Other","Bad",0.5427,"U",1,"immoral"
7004,22,"female","R","C","S","P","Tra",3,1,15,"Val","C","Self","Good",0.4909,"Y",1,"moral"
7004,22,"female","R","C","S","P","Tra",3,1,17,"Val","Tra","Other","Bad",0.4213,"U",1,"immoral"
7004,22,"female","R","C","S","P","Tra",3,1,18,"Val","P","Other","Good",0.5294,"Y",1,"moral"
7004,22,"female","R","C","S","P","Tra",3,1,19,"Val","C","Self","Good",0.5455,"Y",1,"moral"
7004,22,"female","R","C","S","P","Tra",3,1,20,"Val","S","Self","Bad",0.4158,"U",1,"immoral"
7004,22,"female","R","C","S","P","Tra",3,1,21,"Val","P","Other","Good",1.0257,"Y",1,"moral"
7004,22,"female","R","C","S","P","Tra",3,1,22,"Val","P","Other","Good",0.468,"Y",1,"moral"
7004,22,"female","R","C","S","P","Tra",3,1,23,"Val","Tra","Other","Bad",0.4562,"U",1,"immoral"
7004,22,"female","R","C","S","P","Tra",3,1,24,"Val","C","Self","Good",0.4862,"Y",1,"moral"
7004,22,"female","R","C","S","P","Tra",3,2,1,"Val","S","Self","Bad",0.8085,"U",1,"immoral"
7004,22,"female","R","C","S","P","Tra",3,2,2,"Val","Tra","Other","Bad",0.3885,"U",1,"immoral"
7004,22,"female","R","C","S","P","Tra",3,2,3,"Val","C","Self","Good",0.4748,"Y",1,"moral"
7004,22,"female","R","C","S","P","Tra",3,2,4,"Val","Tra","Other","Bad",0.553,"U",1,"immoral"
7004,22,"female","R","C","S","P","Tra",3,2,6,"Val","C","Self","Good",0.4913,"Y",1,"moral"
7004,22,"female","R","C","S","P","Tra",3,2,7,"Val","S","Self","Bad",0.9854,"U",1,"immoral"
7004,22,"female","R","C","S","P","Tra",3,2,9,"Val","C","Self","Good",0.6058,"Y",1,"moral"
7004,22,"female","R","C","S","P","Tra",3,2,11,"Val","Tra","Other","Bad",0.4261,"U",1,"immoral"
7004,22,"female","R","C","S","P","Tra",3,2,12,"Val","Tra","Other","Bad",0.4442,"U",1,"immoral"
7004,22,"female","R","C","S","P","Tra",3,2,13,"Val","P","Other","Good",0.5365,"Y",1,"moral"
7004,22,"female","R","C","S","P","Tra",3,2,14,"Val","S","Self","Bad",0.4247,"U",1,"immoral"
7004,22,"female","R","C","S","P","Tra",3,2,15,"Val","C","Self","Good",0.5128,"Y",1,"moral"
7004,22,"female","R","C","S","P","Tra",3,2,16,"Val","Tra","Other","Bad",0.439,"U",1,"immoral"
7004,22,"female","R","C","S","P","Tra",3,2,18,"Val","P","Other","Good",0.4293,"Y",1,"moral"
7004,22,"female","R","C","S","P","Tra",3,2,19,"Val","S","Self","Bad",0.8094,"U",1,"immoral"
7004,22,"female","R","C","S","P","Tra",3,2,20,"Val","C","Self","Good",0.6856,"Y",1,"moral"
7004,22,"female","R","C","S","P","Tra",3,2,22,"Val","C","Self","Good",0.6038,"Y",1,"moral"
7004,22,"female","R","C","S","P","Tra",3,2,23,"Val","Tra","Other","Bad",0.3941,"U",1,"immoral"
7004,22,"female","R","C","S","P","Tra",3,2,24,"Val","P","Other","Good",0.4582,"Y",1,"moral"
7004,22,"female","R","C","S","P","Tra",3,3,1,"Val","Tra","Other","Bad",0.4504,"U",1,"immoral"
7004,22,"female","R","C","S","P","Tra",3,3,2,"Val","Tra","Other","Bad",0.4945,"U",1,"immoral"
7004,22,"female","R","C","S","P","Tra",3,3,3,"Val","C","Self","Good",0.4645,"Y",1,"moral"
7004,22,"female","R","C","S","P","Tra",3,3,4,"Val","C","Self","Good",0.3829,"Y",1,"moral"
7004,22,"female","R","C","S","P","Tra",3,3,6,"Val","Tra","Other","Bad",0.441,"U",1,"immoral"
7004,22,"female","R","C","S","P","Tra",3,3,7,"Val","S","Self","Bad",0.6653,"U",1,"immoral"
7004,22,"female","R","C","S","P","Tra",3,3,8,"Val","C","Self","Good",0.7875,"Y",1,"moral"
7004,22,"female","R","C","S","P","Tra",3,3,11,"Val","P","Other","Good",0.4778,"Y",1,"moral"
7004,22,"female","R","C","S","P","Tra",3,3,13,"Val","Tra","Other","Bad",0.4904,"U",1,"immoral"
7004,22,"female","R","C","S","P","Tra",3,3,14,"Val","P","Other","Good",0.9845,"Y",1,"moral"
7004,22,"female","R","C","S","P","Tra",3,3,17,"Val","P","Other","Good",0.363,"Y",1,"moral"
7004,22,"female","R","C","S","P","Tra",3,3,18,"Val","Tra","Other","Bad",0.4511,"U",1,"immoral"
7004,22,"female","R","C","S","P","Tra",3,3,19,"Val","Tra","Other","Bad",0.7673,"U",1,"immoral"
7004,22,"female","R","C","S","P","Tra",3,3,20,"Val","C","Self","Good",0.5694,"Y",1,"moral"
7004,22,"female","R","C","S","P","Tra",3,3,21,"Val","C","Self","Good",0.4697,"Y",1,"moral"
7004,22,"female","R","C","S","P","Tra",3,3,22,"Val","S","Self","Bad",0.7217,"U",1,"immoral"
7004,22,"female","R","C","S","P","Tra",3,3,23,"Val","S","Self","Bad",0.4419,"U",1,"immoral"
7004,22,"female","R","C","S","P","Tra",3,3,24,"Val","C","Self","Good",0.582,"Y",1,"moral"
7004,22,"female","R","C","S","P","Tra",3,4,1,"Val","S","Self","Bad",0.7764,"U",1,"immoral"
7004,22,"female","R","C","S","P","Tra",3,4,2,"Val","P","Other","Good",0.4966,"Y",1,"moral"
7004,22,"female","R","C","S","P","Tra",3,4,3,"Val","S","Self","Bad",0.2708,"U",1,"immoral"
7004,22,"female","R","C","S","P","Tra",3,4,4,"Val","Tra","Other","Bad",0.4089,"U",1,"immoral"
7004,22,"female","R","C","S","P","Tra",3,4,5,"Val","P","Other","Good",0.4692,"Y",1,"moral"
7004,22,"female","R","C","S","P","Tra",3,4,6,"Val","Tra","Other","Bad",0.3873,"U",1,"immoral"
7004,22,"female","R","C","S","P","Tra",3,4,7,"Val","C","Self","Good",0.5335,"Y",1,"moral"
7004,22,"female","R","C","S","P","Tra",3,4,8,"Val","C","Self","Good",0.5877,"Y",1,"moral"
7004,22,"female","R","C","S","P","Tra",3,4,9,"Val","P","Other","Good",0.6478,"Y",1,"moral"
7004,22,"female","R","C","S","P","Tra",3,4,10,"Val","Tra","Other","Bad",0.6979,"U",1,"immoral"
7004,22,"female","R","C","S","P","Tra",3,4,11,"Val","Tra","Other","Bad",0.4821,"U",1,"immoral"
7004,22,"female","R","C","S","P","Tra",3,4,12,"Val","P","Other","Good",0.5743,"Y",1,"moral"
7004,22,"female","R","C","S","P","Tra",3,4,13,"Val","C","Self","Good",0.4804,"Y",1,"moral"
7004,22,"female","R","C","S","P","Tra",3,4,14,"Val","C","Self","Good",0.4286,"Y",1,"moral"
7004,22,"female","R","C","S","P","Tra",3,4,16,"Val","C","Self","Good",0.505,"Y",1,"moral"
7004,22,"female","R","C","S","P","Tra",3,4,18,"Val","S","Self","Bad",0.4012,"U",1,"immoral"
7004,22,"female","R","C","S","P","Tra",3,4,19,"Val","S","Self","Bad",0.4294,"U",1,"immoral"
7004,22,"female","R","C","S","P","Tra",3,4,20,"Val","S","Self","Bad",0.3076,"U",1,"immoral"
7004,22,"female","R","C","S","P","Tra",3,4,21,"Val","S","Self","Bad",0.5558,"U",1,"immoral"
7004,22,"female","R","C","S","P","Tra",3,4,22,"Val","Tra","Other","Bad",0.5619,"U",1,"immoral"
7004,22,"female","R","C","S","P","Tra",3,4,23,"Val","Tra","Other","Bad",0.558,"U",1,"immoral"
7004,22,"female","R","C","S","P","Tra",3,4,24,"Val","C","Self","Good",0.5762,"Y",1,"moral"
7004,22,"female","R","C","S","P","Tra",3,5,1,"Val","C","Self","Good",0.5004,"Y",1,"moral"
7004,22,"female","R","C","S","P","Tra",3,5,2,"Val","C","Self","Good",0.4685,"Y",1,"moral"
7004,22,"female","R","C","S","P","Tra",3,5,3,"Val","C","Self","Good",0.3487,"Y",1,"moral"
7004,22,"female","R","C","S","P","Tra",3,5,4,"Val","Tra","Other","Bad",0.5089,"U",1,"immoral"
7004,22,"female","R","C","S","P","Tra",3,5,5,"Val","C","Self","Good",0.345,"Y",1,"moral"
7004,22,"female","R","C","S","P","Tra",3,5,6,"Val","S","Self","Bad",0.4151,"U",1,"immoral"
7004,22,"female","R","C","S","P","Tra",3,5,8,"Val","S","Self","Bad",0.4055,"U",1,"immoral"
7004,22,"female","R","C","S","P","Tra",3,5,9,"Val","C","Self","Good",0.3776,"Y",1,"moral"
7004,22,"female","R","C","S","P","Tra",3,5,10,"Val","P","Other","Good",0.4958,"Y",1,"moral"
7004,22,"female","R","C","S","P","Tra",3,5,11,"Val","S","Self","Bad",0.4939,"U",1,"immoral"
7004,22,"female","R","C","S","P","Tra",3,5,12,"Val","Tra","Other","Bad",0.4181,"U",1,"immoral"
7004,22,"female","R","C","S","P","Tra",3,5,13,"Val","C","Self","Good",0.3962,"Y",1,"moral"
7004,22,"female","R","C","S","P","Tra",3,5,14,"Val","S","Self","Bad",0.4304,"U",1,"immoral"
7004,22,"female","R","C","S","P","Tra",3,5,15,"Val","Tra","Other","Bad",0.7285,"U",1,"immoral"
7004,22,"female","R","C","S","P","Tra",3,5,16,"Val","S","Self","Bad",0.5427,"U",1,"immoral"
7004,22,"female","R","C","S","P","Tra",3,5,17,"Val","Tra","Other","Bad",0.3728,"U",1,"immoral"
7004,22,"female","R","C","S","P","Tra",3,5,18,"Val","S","Self","Bad",0.441,"U",1,"immoral"
7004,22,"female","R","C","S","P","Tra",3,5,19,"Val","P","Other","Good",0.4571,"Y",1,"moral"
7004,22,"female","R","C","S","P","Tra",3,5,20,"Val","Tra","Other","Bad",0.2834,"U",1,"immoral"
7004,22,"female","R","C","S","P","Tra",3,5,21,"Val","P","Other","Good",0.3974,"Y",1,"moral"
7004,22,"female","R","C","S","P","Tra",3,5,22,"Val","P","Other","Good",0.5676,"Y",1,"moral"
7004,22,"female","R","C","S","P","Tra",3,5,23,"Val","P","Other","Good",0.4978,"Y",1,"moral"
7004,22,"female","R","C","S","P","Tra",3,5,24,"Val","Tra","Other","Bad",0.4959,"U",1,"immoral"
7004,22,"female","R","C","S","P","Tra",3,6,1,"Val","P","Other","Good",0.3321,"Y",1,"moral"
7004,22,"female","R","C","S","P","Tra",3,6,3,"Val","Tra","Other","Bad",0.7224,"U",1,"immoral"
7004,22,"female","R","C","S","P","Tra",3,6,4,"Val","S","Self","Bad",0.8225,"U",1,"immoral"
7004,22,"female","R","C","S","P","Tra",3,6,5,"Val","P","Other","Good",0.4848,"Y",1,"moral"
7004,22,"female","R","C","S","P","Tra",3,6,6,"Val","Tra","Other","Bad",0.6749,"U",1,"immoral"
7004,22,"female","R","C","S","P","Tra",3,6,7,"Val","P","Other","Good",0.459,"Y",1,"moral"
7004,22,"female","R","C","S","P","Tra",3,6,8,"Val","S","Self","Bad",0.5572,"U",1,"immoral"
7004,22,"female","R","C","S","P","Tra",3,6,9,"Val","P","Other","Good",0.2953,"Y",1,"moral"
7004,22,"female","R","C","S","P","Tra",3,6,10,"Val","C","Self","Good",0.4816,"Y",1,"moral"
7004,22,"female","R","C","S","P","Tra",3,6,11,"Val","P","Other","Good",0.5357,"Y",1,"moral"
7004,22,"female","R","C","S","P","Tra",3,6,12,"Val","C","Self","Good",0.4578,"Y",1,"moral"
7004,22,"female","R","C","S","P","Tra",3,6,13,"Val","Tra","Other","Bad",0.362,"U",1,"immoral"
7004,22,"female","R","C","S","P","Tra",3,6,14,"Val","Tra","Other","Bad",0.4102,"U",1,"immoral"
7004,22,"female","R","C","S","P","Tra",3,6,16,"Val","C","Self","Good",0.4145,"Y",1,"moral"
7004,22,"female","R","C","S","P","Tra",3,6,17,"Val","Tra","Other","Bad",0.4107,"U",1,"immoral"
7004,22,"female","R","C","S","P","Tra",3,6,18,"Val","P","Other","Good",0.9808,"Y",1,"moral"
7004,22,"female","R","C","S","P","Tra",3,6,19,"Val","C","Self","Good",0.5189,"Y",1,"moral"
7004,22,"female","R","C","S","P","Tra",3,6,20,"Val","Tra","Other","Bad",0.4012,"U",1,"immoral"
7004,22,"female","R","C","S","P","Tra",3,6,21,"Val","S","Self","Bad",0.5813,"U",1,"immoral"
7004,22,"female","R","C","S","P","Tra",3,6,22,"Val","C","Self","Good",0.3754,"Y",1,"moral"
7004,22,"female","R","C","S","P","Tra",3,6,23,"Val","S","Self","Bad",0.3876,"U",1,"immoral"
7004,22,"female","R","C","S","P","Tra",3,6,24,"Val","C","Self","Good",0.3678,"Y",1,"moral"
7004,22,"female","R","C","S","P","Tra",4,1,1,"Id","P","Other","Good",0.5731,"J",1,"other"
7004,22,"female","R","C","S","P","Tra",4,1,2,"Id","S","Self","Bad",0.4434,"H",1,"self"
7004,22,"female","R","C","S","P","Tra",4,1,3,"Id","Tra","Other","Bad",0.3737,"J",1,"other"
7004,22,"female","R","C","S","P","Tra",4,1,4,"Id","S","Self","Bad",0.4998,"H",1,"self"
7004,22,"female","R","C","S","P","Tra",4,1,5,"Id","Tra","Other","Bad",0.4479,"J",1,"other"
7004,22,"female","R","C","S","P","Tra",4,1,6,"Id","Tra","Other","Bad",0.5161,"J",1,"other"
7004,22,"female","R","C","S","P","Tra",4,1,7,"Id","S","Self","Bad",0.3422,"H",1,"self"
7004,22,"female","R","C","S","P","Tra",4,1,8,"Id","C","Self","Good",0.5304,"H",1,"self"
7004,22,"female","R","C","S","P","Tra",4,1,9,"Id","S","Self","Bad",0.3826,"H",1,"self"
7004,22,"female","R","C","S","P","Tra",4,1,10,"Id","S","Self","Bad",0.3568,"H",1,"self"
7004,22,"female","R","C","S","P","Tra",4,1,11,"Id","S","Self","Bad",0.493,"H",1,"self"
7004,22,"female","R","C","S","P","Tra",4,1,12,"Id","P","Other","Good",0.5451,"J",1,"other"
7004,22,"female","R","C","S","P","Tra",4,1,13,"Id","C","Self","Good",0.4593,"H",1,"self"
7004,22,"female","R","C","S","P","Tra",4,1,14,"Id","C","Self","Good",0.7154,"H",1,"self"
7004,22,"female","R","C","S","P","Tra",4,1,15,"Id","C","Self","Good",1.0076,"H",1,"self"
7004,22,"female","R","C","S","P","Tra",4,1,16,"Id","C","Self","Good",0.3898,"H",1,"self"
7004,22,"female","R","C","S","P","Tra",4,1,17,"Id","P","Other","Good",0.3399,"J",1,"other"
7004,22,"female","R","C","S","P","Tra",4,1,18,"Id","Tra","Other","Bad",0.55,"J",1,"other"
7004,22,"female","R","C","S","P","Tra",4,1,19,"Id","Tra","Other","Bad",0.7282,"J",1,"other"
7004,22,"female","R","C","S","P","Tra",4,1,20,"Id","P","Other","Good",0.6244,"J",1,"other"
7004,22,"female","R","C","S","P","Tra",4,1,21,"Id","C","Self","Good",0.4125,"H",1,"self"
7004,22,"female","R","C","S","P","Tra",4,1,22,"Id","P","Other","Good",0.8828,"J",1,"other"
7004,22,"female","R","C","S","P","Tra",4,1,23,"Id","P","Other","Good",0.5608,"J",1,"other"
7004,22,"female","R","C","S","P","Tra",4,2,1,"Id","Tra","Other","Bad",0.5513,"J",1,"other"
7004,22,"female","R","C","S","P","Tra",4,2,2,"Id","C","Self","Good",0.4254,"H",1,"self"
7004,22,"female","R","C","S","P","Tra",4,2,3,"Id","P","Other","Good",0.4876,"J",1,"other"
7004,22,"female","R","C","S","P","Tra",4,2,4,"Id","Tra","Other","Bad",0.7817,"J",1,"other"
7004,22,"female","R","C","S","P","Tra",4,2,5,"Id","S","Self","Bad",0.5079,"H",1,"self"
7004,22,"female","R","C","S","P","Tra",4,2,7,"Id","Tra","Other","Bad",0.7802,"J",1,"other"
7004,22,"female","R","C","S","P","Tra",4,2,8,"Id","S","Self","Bad",0.8924,"H",1,"self"
7004,22,"female","R","C","S","P","Tra",4,2,11,"Id","C","Self","Good",0.4909,"H",1,"self"
7004,22,"female","R","C","S","P","Tra",4,2,13,"Id","P","Other","Good",0.4753,"J",1,"other"
7004,22,"female","R","C","S","P","Tra",4,2,14,"Id","Tra","Other","Bad",0.7294,"J",1,"other"
7004,22,"female","R","C","S","P","Tra",4,2,16,"Id","P","Other","Good",0.5676,"J",1,"other"
7004,22,"female","R","C","S","P","Tra",4,2,19,"Id","Tra","Other","Bad",0.3482,"J",1,"other"
7004,22,"female","R","C","S","P","Tra",4,2,20,"Id","S","Self","Bad",0.5604,"H",1,"self"
7004,22,"female","R","C","S","P","Tra",4,2,21,"Id","Tra","Other","Bad",0.7806,"J",1,"other"
7004,22,"female","R","C","S","P","Tra",4,2,22,"Id","C","Self","Good",0.6306,"H",1,"self"
7004,22,"female","R","C","S","P","Tra",4,2,23,"Id","P","Other","Good",0.6108,"J",1,"other"
7004,22,"female","R","C","S","P","Tra",4,2,24,"Id","S","Self","Bad",0.585,"H",1,"self"
7004,22,"female","R","C","S","P","Tra",4,3,1,"Id","P","Other","Good",0.4572,"J",1,"other"
7004,22,"female","R","C","S","P","Tra",4,3,2,"Id","S","Self","Bad",0.4833,"H",1,"self"
7004,22,"female","R","C","S","P","Tra",4,3,3,"Id","S","Self","Bad",0.4934,"H",1,"self"
7004,22,"female","R","C","S","P","Tra",4,3,4,"Id","S","Self","Bad",0.4477,"H",1,"self"
7004,22,"female","R","C","S","P","Tra",4,3,5,"Id","Tra","Other","Bad",0.6198,"J",1,"other"
7004,22,"female","R","C","S","P","Tra",4,3,6,"Id","P","Other","Good",0.552,"J",1,"other"
7004,22,"female","R","C","S","P","Tra",4,3,7,"Id","P","Other","Good",0.5101,"J",1,"other"
7004,22,"female","R","C","S","P","Tra",4,3,8,"Id","C","Self","Good",0.4662,"H",1,"self"
7004,22,"female","R","C","S","P","Tra",4,3,9,"Id","Tra","Other","Bad",0.7945,"J",1,"other"
7004,22,"female","R","C","S","P","Tra",4,3,10,"Id","C","Self","Good",0.7166,"H",1,"self"
7004,22,"female","R","C","S","P","Tra",4,3,12,"Id","Tra","Other","Bad",0.6589,"J",1,"other"
7004,22,"female","R","C","S","P","Tra",4,3,13,"Id","S","Self","Bad",0.4271,"H",1,"self"
7004,22,"female","R","C","S","P","Tra",4,3,14,"Id","S","Self","Bad",0.5473,"H",1,"self"
7004,22,"female","R","C","S","P","Tra",4,3,15,"Id","S","Self","Bad",0.7574,"H",1,"self"
7004,22,"female","R","C","S","P","Tra",4,3,16,"Id","Tra","Other","Bad",0.6856,"J",1,"other"
7004,22,"female","R","C","S","P","Tra",4,3,17,"Id","Tra","Other","Bad",0.5018,"J",1,"other"
7004,22,"female","R","C","S","P","Tra",4,3,21,"Id","Tra","Other","Bad",0.3405,"J",1,"other"
7004,22,"female","R","C","S","P","Tra",4,3,22,"Id","P","Other","Good",0.7645,"J",1,"other"
7004,22,"female","R","C","S","P","Tra",4,3,23,"Id","C","Self","Good",0.6886,"H",1,"self"
7004,22,"female","R","C","S","P","Tra",4,4,1,"Id","Tra","Other","Bad",0.4526,"J",1,"other"
7004,22,"female","R","C","S","P","Tra",4,4,2,"Id","Tra","Other","Bad",0.469,"J",1,"other"
7004,22,"female","R","C","S","P","Tra",4,4,3,"Id","C","Self","Good",0.4831,"H",1,"self"
7004,22,"female","R","C","S","P","Tra",4,4,4,"Id","Tra","Other","Bad",0.4293,"J",1,"other"
7004,22,"female","R","C","S","P","Tra",4,4,5,"Id","P","Other","Good",0.4834,"J",1,"other"
7004,22,"female","R","C","S","P","Tra",4,4,6,"Id","P","Other","Good",0.3876,"J",1,"other"
7004,22,"female","R","C","S","P","Tra",4,4,7,"Id","C","Self","Good",0.4117,"H",1,"self"
7004,22,"female","R","C","S","P","Tra",4,4,8,"Id","C","Self","Good",0.276,"H",1,"self"
7004,22,"female","R","C","S","P","Tra",4,4,9,"Id","S","Self","Bad",0.3821,"H",1,"self"
7004,22,"female","R","C","S","P","Tra",4,4,10,"Id","S","Self","Bad",0.6582,"H",1,"self"
7004,22,"female","R","C","S","P","Tra",4,4,11,"Id","P","Other","Good",0.4744,"J",1,"other"
7004,22,"female","R","C","S","P","Tra",4,4,12,"Id","C","Self","Good",0.3806,"H",1,"self"
7004,22,"female","R","C","S","P","Tra",4,4,13,"Id","P","Other","Good",0.3407,"J",1,"other"
7004,22,"female","R","C","S","P","Tra",4,4,14,"Id","P","Other","Good",0.4209,"J",1,"other"
7004,22,"female","R","C","S","P","Tra",4,4,15,"Id","Tra","Other","Bad",0.431,"J",1,"other"
7004,22,"female","R","C","S","P","Tra",4,4,16,"Id","S","Self","Bad",0.5371,"H",1,"self"
7004,22,"female","R","C","S","P","Tra",4,4,17,"Id","Tra","Other","Bad",0.5654,"J",1,"other"
7004,22,"female","R","C","S","P","Tra",4,4,19,"Id","P","Other","Good",0.6237,"J",1,"other"
7004,22,"female","R","C","S","P","Tra",4,4,21,"Id","Tra","Other","Bad",0.602,"J",1,"other"
7004,22,"female","R","C","S","P","Tra",4,5,2,"Id","S","Self","Bad",0.6508,"H",1,"self"
7004,22,"female","R","C","S","P","Tra",4,5,3,"Id","Tra","Other","Bad",0.451,"J",1,"other"
7004,22,"female","R","C","S","P","Tra",4,5,4,"Id","P","Other","Good",0.8772,"J",1,"other"
7004,22,"female","R","C","S","P","Tra",4,5,6,"Id","C","Self","Good",0.4295,"H",1,"self"
7004,22,"female","R","C","S","P","Tra",4,5,7,"Id","S","Self","Bad",0.5316,"H",1,"self"
7004,22,"female","R","C","S","P","Tra",4,5,8,"Id","P","Other","Good",0.3618,"J",1,"other"
7004,22,"female","R","C","S","P","Tra",4,5,9,"Id","C","Self","Good",0.4759,"H",1,"self"
7004,22,"female","R","C","S","P","Tra",4,5,10,"Id","P","Other","Good",0.6601,"J",1,"other"
7004,22,"female","R","C","S","P","Tra",4,5,11,"Id","Tra","Other","Bad",0.4462,"J",1,"other"
7004,22,"female","R","C","S","P","Tra",4,5,13,"Id","Tra","Other","Bad",0.3945,"J",1,"other"
7004,22,"female","R","C","S","P","Tra",4,5,14,"Id","C","Self","Good",0.2808,"H",1,"self"
7004,22,"female","R","C","S","P","Tra",4,5,15,"Id","C","Self","Good",0.3249,"H",1,"self"
7004,22,"female","R","C","S","P","Tra",4,5,16,"Id","P","Other","Good",0.4011,"J",1,"other"
7004,22,"female","R","C","S","P","Tra",4,5,17,"Id","Tra","Other","Bad",0.4833,"J",1,"other"
7004,22,"female","R","C","S","P","Tra",4,5,19,"Id","S","Self","Bad",0.4155,"H",1,"self"
7004,22,"female","R","C","S","P","Tra",4,5,21,"Id","C","Self","Good",0.4378,"H",1,"self"
7004,22,"female","R","C","S","P","Tra",4,5,22,"Id","P","Other","Good",0.434,"J",1,"other"
7004,22,"female","R","C","S","P","Tra",4,5,23,"Id","Tra","Other","Bad",0.342,"J",1,"other"
7004,22,"female","R","C","S","P","Tra",4,5,24,"Id","Tra","Other","Bad",0.3863,"J",1,"other"
7004,22,"female","R","C","S","P","Tra",4,6,1,"Id","C","Self","Good",0.3885,"H",1,"self"
7004,22,"female","R","C","S","P","Tra",4,6,2,"Id","Tra","Other","Bad",0.8487,"J",1,"other"
7004,22,"female","R","C","S","P","Tra",4,6,3,"Id","Tra","Other","Bad",0.3669,"J",1,"other"
7004,22,"female","R","C","S","P","Tra",4,6,4,"Id","P","Other","Good",0.525,"J",1,"other"
7004,22,"female","R","C","S","P","Tra",4,6,5,"Id","P","Other","Good",0.6472,"J",1,"other"
7004,22,"female","R","C","S","P","Tra",4,6,6,"Id","S","Self","Bad",0.4234,"H",1,"self"
7004,22,"female","R","C","S","P","Tra",4,6,7,"Id","Tra","Other","Bad",0.5955,"J",1,"other"
7004,22,"female","R","C","S","P","Tra",4,6,8,"Id","S","Self","Bad",0.4216,"H",1,"self"
7004,22,"female","R","C","S","P","Tra",4,6,9,"Id","C","Self","Good",0.4738,"H",1,"self"
7004,22,"female","R","C","S","P","Tra",4,6,10,"Id","P","Other","Good",0.672,"J",1,"other"
7004,22,"female","R","C","S","P","Tra",4,6,11,"Id","Tra","Other","Bad",0.5321,"J",1,"other"
7004,22,"female","R","C","S","P","Tra",4,6,12,"Id","C","Self","Good",0.3923,"H",1,"self"
7004,22,"female","R","C","S","P","Tra",4,6,13,"Id","Tra","Other","Bad",0.5005,"J",1,"other"
7004,22,"female","R","C","S","P","Tra",4,6,14,"Id","P","Other","Good",0.5686,"J",1,"other"
7004,22,"female","R","C","S","P","Tra",4,6,15,"Id","P","Other","Good",0.4468,"J",1,"other"
7004,22,"female","R","C","S","P","Tra",4,6,16,"Id","S","Self","Bad",0.4689,"H",1,"self"
7004,22,"female","R","C","S","P","Tra",4,6,17,"Id","S","Self","Bad",0.5251,"H",1,"self"
7004,22,"female","R","C","S","P","Tra",4,6,18,"Id","C","Self","Good",0.4033,"H",1,"self"
7004,22,"female","R","C","S","P","Tra",4,6,19,"Id","S","Self","Bad",0.4774,"H",1,"self"
7004,22,"female","R","C","S","P","Tra",4,6,20,"Id","Tra","Other","Bad",0.3096,"J",1,"other"
7004,22,"female","R","C","S","P","Tra",4,6,21,"Id","C","Self","Good",0.3618,"H",1,"self"
7004,22,"female","R","C","S","P","Tra",4,6,22,"Id","S","Self","Bad",0.5279,"H",1,"self"
7004,22,"female","R","C","S","P","Tra",4,6,23,"Id","C","Self","Good",0.386,"H",1,"self"
7004,22,"female","R","C","S","P","Tra",4,6,24,"Id","P","Other","Good",0.3383,"J",1,"other"
7004,22,"female","R","C","S","P","Tra",5,1,1,"Val","C","Self","Good",0.5858,"Y",1,"moral"
7004,22,"female","R","C","S","P","Tra",5,1,2,"Val","Tra","Other","Bad",0.654,"U",1,"immoral"
7004,22,"female","R","C","S","P","Tra",5,1,3,"Val","S","Self","Bad",1.0381,"U",1,"immoral"
7004,22,"female","R","C","S","P","Tra",5,1,4,"Val","Tra","Other","Bad",0.5383,"U",1,"immoral"
7004,22,"female","R","C","S","P","Tra",5,1,6,"Val","C","Self","Good",0.5026,"Y",1,"moral"
7004,22,"female","R","C","S","P","Tra",5,1,7,"Val","Tra","Other","Bad",0.2728,"U",1,"immoral"
7004,22,"female","R","C","S","P","Tra",5,1,8,"Val","S","Self","Bad",0.375,"U",1,"immoral"
7004,22,"female","R","C","S","P","Tra",5,1,9,"Val","P","Other","Good",0.5292,"Y",1,"moral"
7004,22,"female","R","C","S","P","Tra",5,1,11,"Val","Tra","Other","Bad",0.2734,"U",1,"immoral"
7004,22,"female","R","C","S","P","Tra",5,1,12,"Val","P","Other","Good",0.4256,"Y",1,"moral"
7004,22,"female","R","C","S","P","Tra",5,1,13,"Val","C","Self","Good",0.5498,"Y",1,"moral"
7004,22,"female","R","C","S","P","Tra",5,1,14,"Val","S","Self","Bad",0.298,"U",1,"immoral"
7004,22,"female","R","C","S","P","Tra",5,1,15,"Val","C","Self","Good",0.3701,"Y",1,"moral"
7004,22,"female","R","C","S","P","Tra",5,1,18,"Val","C","Self","Good",0.5065,"Y",1,"moral"
7004,22,"female","R","C","S","P","Tra",5,1,19,"Val","S","Self","Bad",0.3887,"U",1,"immoral"
7004,22,"female","R","C","S","P","Tra",5,1,20,"Val","S","Self","Bad",0.431,"U",1,"immoral"
7004,22,"female","R","C","S","P","Tra",5,1,21,"Val","P","Other","Good",0.5631,"Y",1,"moral"
7004,22,"female","R","C","S","P","Tra",5,1,22,"Val","C","Self","Good",0.6372,"Y",1,"moral"
7004,22,"female","R","C","S","P","Tra",5,1,23,"Val","Tra","Other","Bad",0.4134,"U",1,"immoral"
7004,22,"female","R","C","S","P","Tra",5,1,24,"Val","Tra","Other","Bad",0.2856,"U",1,"immoral"
7004,22,"female","R","C","S","P","Tra",5,2,1,"Val","S","Self","Bad",0.4057,"U",1,"immoral"
7004,22,"female","R","C","S","P","Tra",5,2,2,"Val","Tra","Other","Bad",0.308,"U",1,"immoral"
7004,22,"female","R","C","S","P","Tra",5,2,3,"Val","S","Self","Bad",0.2861,"U",1,"immoral"
7004,22,"female","R","C","S","P","Tra",5,2,4,"Val","C","Self","Good",0.512,"Y",1,"moral"
7004,22,"female","R","C","S","P","Tra",5,2,5,"Val","Tra","Other","Bad",0.3483,"U",1,"immoral"
7004,22,"female","R","C","S","P","Tra",5,2,6,"Val","P","Other","Good",0.4665,"Y",1,"moral"
7004,22,"female","R","C","S","P","Tra",5,2,7,"Val","Tra","Other","Bad",0.4348,"U",1,"immoral"
7004,22,"female","R","C","S","P","Tra",5,2,8,"Val","C","Self","Good",1.0128,"Y",1,"moral"
7004,22,"female","R","C","S","P","Tra",5,2,9,"Val","S","Self","Bad",0.273,"U",1,"immoral"
7004,22,"female","R","C","S","P","Tra",5,2,10,"Val","C","Self","Good",0.4652,"Y",1,"moral"
7004,22,"female","R","C","S","P","Tra",5,2,11,"Val","S","Self","Bad",0.3374,"U",1,"immoral"
7004,22,"female","R","C","S","P","Tra",5,2,12,"Val","Tra","Other","Bad",0.4415,"U",1,"immoral"
7004,22,"female","R","C","S","P","Tra",5,2,13,"Val","P","Other","Good",0.5178,"Y",1,"moral"
7004,22,"female","R","C","S","P","Tra",5,2,14,"Val","S","Self","Bad",0.2999,"U",1,"immoral"
7004,22,"female","R","C","S","P","Tra",5,2,15,"Val","C","Self","Good",0.452,"Y",1,"moral"
7004,22,"female","R","C","S","P","Tra",5,2,16,"Val","P","Other","Good",0.4581,"Y",1,"moral"
7004,22,"female","R","C","S","P","Tra",5,2,17,"Val","C","Self","Good",0.5063,"Y",1,"moral"
7004,22,"female","R","C","S","P","Tra",5,2,18,"Val","Tra","Other","Bad",0.3444,"U",1,"immoral"
7004,22,"female","R","C","S","P","Tra",5,2,19,"Val","P","Other","Good",0.5527,"Y",1,"moral"
7004,22,"female","R","C","S","P","Tra",5,2,20,"Val","P","Other","Good",0.4168,"Y",1,"moral"
7004,22,"female","R","C","S","P","Tra",5,2,21,"Val","P","Other","Good",0.433,"Y",1,"moral"
7004,22,"female","R","C","S","P","Tra",5,2,22,"Val","S","Self","Bad",0.3931,"U",1,"immoral"
7004,22,"female","R","C","S","P","Tra",5,2,23,"Val","C","Self","Good",0.5053,"Y",1,"moral"
7004,22,"female","R","C","S","P","Tra",5,2,24,"Val","Tra","Other","Bad",0.5215,"U",1,"immoral"
7004,22,"female","R","C","S","P","Tra",5,3,1,"Val","S","Self","Bad",0.3216,"U",1,"immoral"
7004,22,"female","R","C","S","P","Tra",5,3,2,"Val","P","Other","Good",0.5177,"Y",1,"moral"
7004,22,"female","R","C","S","P","Tra",5,3,3,"Val","Tra","Other","Bad",0.418,"U",1,"immoral"
7004,22,"female","R","C","S","P","Tra",5,3,5,"Val","S","Self","Bad",0.3483,"U",1,"immoral"
7004,22,"female","R","C","S","P","Tra",5,3,6,"Val","S","Self","Bad",0.3485,"U",1,"immoral"
7004,22,"female","R","C","S","P","Tra",5,3,7,"Val","C","Self","Good",0.4086,"Y",1,"moral"
7004,22,"female","R","C","S","P","Tra",5,3,8,"Val","P","Other","Good",0.7987,"Y",1,"moral"
7004,22,"female","R","C","S","P","Tra",5,3,9,"Val","Tra","Other","Bad",0.3009,"U",1,"immoral"
7004,22,"female","R","C","S","P","Tra",5,3,10,"Val","Tra","Other","Bad",0.325,"U",1,"immoral"
7004,22,"female","R","C","S","P","Tra",5,3,11,"Val","P","Other","Good",0.6673,"Y",1,"moral"
7004,22,"female","R","C","S","P","Tra",5,3,12,"Val","S","Self","Bad",0.4334,"U",1,"immoral"
7004,22,"female","R","C","S","P","Tra",5,3,13,"Val","C","Self","Good",0.4056,"Y",1,"moral"
7004,22,"female","R","C","S","P","Tra",5,3,14,"Val","C","Self","Good",0.5377,"Y",1,"moral"
7004,22,"female","R","C","S","P","Tra",5,3,16,"Val","C","Self","Good",0.6241,"Y",1,"moral"
7004,22,"female","R","C","S","P","Tra",5,3,17,"Val","S","Self","Bad",0.6722,"U",1,"immoral"
7004,22,"female","R","C","S","P","Tra",5,3,18,"Val","C","Self","Good",0.4884,"Y",1,"moral"
7004,22,"female","R","C","S","P","Tra",5,3,19,"Val","S","Self","Bad",0.3825,"U",1,"immoral"
7004,22,"female","R","C","S","P","Tra",5,3,20,"Val","Tra","Other","Bad",0.5008,"U",1,"immoral"
7004,22,"female","R","C","S","P","Tra",5,3,21,"Val","P","Other","Good",0.5189,"Y",1,"moral"
7004,22,"female","R","C","S","P","Tra",5,3,22,"Val","Tra","Other","Bad",0.591,"U",1,"immoral"
7004,22,"female","R","C","S","P","Tra",5,3,23,"Val","C","Self","Good",0.3812,"Y",1,"moral"
7004,22,"female","R","C","S","P","Tra",5,3,24,"Val","Tra","Other","Bad",0.5593,"U",1,"immoral"
7004,22,"female","R","C","S","P","Tra",5,4,1,"Val","S","Self","Bad",0.4855,"U",1,"immoral"
7004,22,"female","R","C","S","P","Tra",5,4,2,"Val","S","Self","Bad",0.2837,"U",1,"immoral"
7004,22,"female","R","C","S","P","Tra",5,4,3,"Val","Tra","Other","Bad",0.3659,"U",1,"immoral"
7004,22,"female","R","C","S","P","Tra",5,4,4,"Val","S","Self","Bad",0.2981,"U",1,"immoral"
7004,22,"female","R","C","S","P","Tra",5,4,5,"Val","C","Self","Good",0.3502,"Y",1,"moral"
7004,22,"female","R","C","S","P","Tra",5,4,6,"Val","Tra","Other","Bad",0.5883,"U",1,"immoral"
7004,22,"female","R","C","S","P","Tra",5,4,7,"Val","Tra","Other","Bad",0.4005,"U",1,"immoral"
7004,22,"female","R","C","S","P","Tra",5,4,8,"Val","C","Self","Good",0.3347,"Y",1,"moral"
7004,22,"female","R","C","S","P","Tra",5,4,9,"Val","P","Other","Good",0.5928,"Y",1,"moral"
7004,22,"female","R","C","S","P","Tra",5,4,10,"Val","C","Self","Good",0.373,"Y",1,"moral"
7004,22,"female","R","C","S","P","Tra",5,4,11,"Val","S","Self","Bad",0.3191,"U",1,"immoral"
7004,22,"female","R","C","S","P","Tra",5,4,12,"Val","P","Other","Good",0.4212,"Y",1,"moral"
7004,22,"female","R","C","S","P","Tra",5,4,13,"Val","S","Self","Bad",0.3314,"U",1,"immoral"
7004,22,"female","R","C","S","P","Tra",5,4,14,"Val","S","Self","Bad",0.3156,"U",1,"immoral"
7004,22,"female","R","C","S","P","Tra",5,4,15,"Val","Tra","Other","Bad",0.4218,"U",1,"immoral"
7004,22,"female","R","C","S","P","Tra",5,4,16,"Val","C","Self","Good",0.3859,"Y",1,"moral"
7004,22,"female","R","C","S","P","Tra",5,4,18,"Val","C","Self","Good",0.4563,"Y",1,"moral"
7004,22,"female","R","C","S","P","Tra",5,4,19,"Val","P","Other","Good",0.4145,"Y",1,"moral"
7004,22,"female","R","C","S","P","Tra",5,4,20,"Val","P","Other","Good",0.3945,"Y",1,"moral"
7004,22,"female","R","C","S","P","Tra",5,4,21,"Val","P","Other","Good",0.4027,"Y",1,"moral"
7004,22,"female","R","C","S","P","Tra",5,4,22,"Val","C","Self","Good",0.5349,"Y",1,"moral"
7004,22,"female","R","C","S","P","Tra",5,4,23,"Val","Tra","Other","Bad",0.4211,"U",1,"immoral"
7004,22,"female","R","C","S","P","Tra",5,4,24,"Val","Tra","Other","Bad",0.3652,"U",1,"immoral"
7004,22,"female","R","C","S","P","Tra",5,5,1,"Val","S","Self","Bad",0.4934,"U",1,"immoral"
7004,22,"female","R","C","S","P","Tra",5,5,2,"Val","C","Self","Good",0.5235,"Y",1,"moral"
7004,22,"female","R","C","S","P","Tra",5,5,3,"Val","C","Self","Good",0.5778,"Y",1,"moral"
7004,22,"female","R","C","S","P","Tra",5,5,4,"Val","P","Other","Good",0.7099,"Y",1,"moral"
7004,22,"female","R","C","S","P","Tra",5,5,5,"Val","C","Self","Good",0.6361,"Y",1,"moral"
7004,22,"female","R","C","S","P","Tra",5,5,6,"Val","Tra","Other","Bad",0.5622,"U",1,"immoral"
7004,22,"female","R","C","S","P","Tra",5,5,7,"Val","P","Other","Good",0.8743,"Y",1,"moral"
7004,22,"female","R","C","S","P","Tra",5,5,8,"Val","C","Self","Good",0.5526,"Y",1,"moral"
7004,22,"female","R","C","S","P","Tra",5,5,9,"Val","S","Self","Bad",0.4687,"U",1,"immoral"
7004,22,"female","R","C","S","P","Tra",5,5,10,"Val","P","Other","Good",0.5868,"Y",1,"moral"
7004,22,"female","R","C","S","P","Tra",5,5,11,"Val","Tra","Other","Bad",0.761,"U",1,"immoral"
7004,22,"female","R","C","S","P","Tra",5,5,12,"Val","C","Self","Good",0.4572,"Y",1,"moral"
7004,22,"female","R","C","S","P","Tra",5,5,13,"Val","C","Self","Good",0.4573,"Y",1,"moral"
7004,22,"female","R","C","S","P","Tra",5,5,14,"Val","S","Self","Bad",0.4015,"U",1,"immoral"
7004,22,"female","R","C","S","P","Tra",5,5,15,"Val","P","Other","Good",0.5017,"Y",1,"moral"
7004,22,"female","R","C","S","P","Tra",5,5,16,"Val","S","Self","Bad",0.4599,"U",1,"immoral"
7004,22,"female","R","C","S","P","Tra",5,5,17,"Val","Tra","Other","Bad",0.4239,"U",1,"immoral"
7004,22,"female","R","C","S","P","Tra",5,5,18,"Val","S","Self","Bad",0.3381,"U",1,"immoral"
7004,22,"female","R","C","S","P","Tra",5,5,19,"Val","Tra","Other","Bad",0.4843,"U",1,"immoral"
7004,22,"female","R","C","S","P","Tra",5,5,20,"Val","P","Other","Good",0.7043,"Y",1,"moral"
7004,22,"female","R","C","S","P","Tra",5,5,21,"Val","Tra","Other","Bad",0.4746,"U",1,"immoral"
7004,22,"female","R","C","S","P","Tra",5,5,22,"Val","P","Other","Good",0.5048,"Y",1,"moral"
7004,22,"female","R","C","S","P","Tra",5,5,23,"Val","S","Self","Bad",0.3469,"U",1,"immoral"
7004,22,"female","R","C","S","P","Tra",5,5,24,"Val","Tra","Other","Bad",0.491,"U",1,"immoral"
7004,22,"female","R","C","S","P","Tra",5,6,1,"Val","Tra","Other","Bad",0.4472,"U",1,"immoral"
7004,22,"female","R","C","S","P","Tra",5,6,2,"Val","Tra","Other","Bad",0.5514,"U",1,"immoral"
7004,22,"female","R","C","S","P","Tra",5,6,3,"Val","Tra","Other","Bad",0.5195,"U",1,"immoral"
7004,22,"female","R","C","S","P","Tra",5,6,4,"Val","C","Self","Good",0.4256,"Y",1,"moral"
7004,22,"female","R","C","S","P","Tra",5,6,5,"Val","P","Other","Good",0.5618,"Y",1,"moral"
7004,22,"female","R","C","S","P","Tra",5,6,6,"Val","P","Other","Good",0.562,"Y",1,"moral"
7004,22,"female","R","C","S","P","Tra",5,6,7,"Val","C","Self","Good",0.4462,"Y",1,"moral"
7004,22,"female","R","C","S","P","Tra",5,6,8,"Val","P","Other","Good",0.4444,"Y",1,"moral"
7004,22,"female","R","C","S","P","Tra",5,6,9,"Val","Tra","Other","Bad",0.4065,"U",1,"immoral"
7004,22,"female","R","C","S","P","Tra",5,6,10,"Val","Tra","Other","Bad",0.7327,"U",1,"immoral"
7004,22,"female","R","C","S","P","Tra",5,6,11,"Val","S","Self","Bad",0.4089,"U",1,"immoral"
7004,22,"female","R","C","S","P","Tra",5,6,12,"Val","P","Other","Good",0.435,"Y",1,"moral"
7004,22,"female","R","C","S","P","Tra",5,6,13,"Val","S","Self","Bad",0.3672,"U",1,"immoral"
7004,22,"female","R","C","S","P","Tra",5,6,14,"Val","S","Self","Bad",0.5353,"U",1,"immoral"
7004,22,"female","R","C","S","P","Tra",5,6,15,"Val","S","Self","Bad",0.3955,"U",1,"immoral"
7004,22,"female","R","C","S","P","Tra",5,6,16,"Val","S","Self","Bad",0.2957,"U",1,"immoral"
7004,22,"female","R","C","S","P","Tra",5,6,17,"Val","C","Self","Good",0.5678,"Y",1,"moral"
7004,22,"female","R","C","S","P","Tra",5,6,18,"Val","C","Self","Good",0.582,"Y",1,"moral"
7004,22,"female","R","C","S","P","Tra",5,6,19,"Val","S","Self","Bad",0.7322,"U",1,"immoral"
7004,22,"female","R","C","S","P","Tra",5,6,20,"Val","P","Other","Good",0.4483,"Y",1,"moral"
7004,22,"female","R","C","S","P","Tra",5,6,21,"Val","Tra","Other","Bad",0.3725,"U",1,"immoral"
7004,22,"female","R","C","S","P","Tra",5,6,22,"Val","P","Other","Good",0.7586,"Y",1,"moral"
7004,22,"female","R","C","S","P","Tra",5,6,23,"Val","C","Self","Good",0.5107,"Y",1,"moral"
7004,22,"female","R","C","S","P","Tra",5,6,24,"Val","C","Self","Good",0.6889,"Y",1,"moral"
7005,20,"male","R","S","P","Tra","C",1,1,1,"Val","S","Self","Good",0.4751,"U",1,"moral"
7005,20,"male","R","S","P","Tra","C",1,1,2,"Val","P","Self","Bad",0.8692,"Y",1,"immoral"
7005,20,"male","R","S","P","Tra","C",1,1,3,"Val","C","Other","Bad",0.7574,"Y",1,"immoral"
7005,20,"male","R","S","P","Tra","C",1,1,4,"Val","Tra","Other","Good",0.6275,"U",1,"moral"
7005,20,"male","R","S","P","Tra","C",1,1,5,"Val","C","Other","Bad",0.6036,"Y",1,"immoral"
7005,20,"male","R","S","P","Tra","C",1,1,6,"Val","S","Self","Good",0.5558,"U",1,"moral"
7005,20,"male","R","S","P","Tra","C",1,1,7,"Val","C","Other","Bad",0.4278,"Y",1,"immoral"
7005,20,"male","R","S","P","Tra","C",1,1,8,"Val","Tra","Other","Good",0.614,"U",1,"moral"
7005,20,"male","R","S","P","Tra","C",1,1,9,"Val","S","Self","Good",0.3801,"U",1,"moral"
7005,20,"male","R","S","P","Tra","C",1,1,10,"Val","Tra","Other","Good",0.4363,"U",1,"moral"
7005,20,"male","R","S","P","Tra","C",1,1,11,"Val","S","Self","Good",0.5043,"U",1,"moral"
7005,20,"male","R","S","P","Tra","C",1,1,12,"Val","S","Self","Good",0.4125,"U",1,"moral"
7005,20,"male","R","S","P","Tra","C",1,1,13,"Val","C","Other","Bad",0.6206,"Y",1,"immoral"
7005,20,"male","R","S","P","Tra","C",1,1,14,"Val","Tra","Other","Good",0.6128,"U",1,"moral"
7005,20,"male","R","S","P","Tra","C",1,1,15,"Val","C","Other","Bad",0.6749,"Y",1,"immoral"
7005,20,"male","R","S","P","Tra","C",1,1,16,"Val","Tra","Other","Good",0.591,"U",1,"moral"
7005,20,"male","R","S","P","Tra","C",1,1,17,"Val","C","Other","Bad",0.7111,"Y",1,"immoral"
7005,20,"male","R","S","P","Tra","C",1,1,18,"Val","P","Self","Bad",0.6853,"Y",1,"immoral"
7005,20,"male","R","S","P","Tra","C",1,1,19,"Val","P","Self","Bad",0.4714,"Y",1,"immoral"
7005,20,"male","R","S","P","Tra","C",1,1,20,"Val","S","Self","Good",0.5195,"U",1,"moral"
7005,20,"male","R","S","P","Tra","C",1,1,21,"Val","Tra","Other","Good",0.5336,"U",1,"moral"
7005,20,"male","R","S","P","Tra","C",1,1,22,"Val","P","Self","Bad",0.8258,"Y",1,"immoral"
7005,20,"male","R","S","P","Tra","C",1,1,23,"Val","P","Self","Bad",0.5259,"Y",1,"immoral"
7005,20,"male","R","S","P","Tra","C",1,1,24,"Val","P","Self","Bad",0.472,"Y",1,"immoral"
7005,20,"male","R","S","P","Tra","C",1,2,1,"Val","Tra","Other","Good",0.4561,"U",1,"moral"
7005,20,"male","R","S","P","Tra","C",1,2,2,"Val","C","Other","Bad",0.5103,"Y",1,"immoral"
7005,20,"male","R","S","P","Tra","C",1,2,3,"Val","Tra","Other","Good",0.4924,"U",1,"moral"
7005,20,"male","R","S","P","Tra","C",1,2,4,"Val","S","Self","Good",0.5052,"U",1,"moral"
7005,20,"male","R","S","P","Tra","C",1,2,5,"Val","Tra","Other","Good",0.7666,"U",1,"moral"
7005,20,"male","R","S","P","Tra","C",1,2,6,"Val","C","Other","Bad",0.5268,"Y",1,"immoral"
7005,20,"male","R","S","P","Tra","C",1,2,7,"Val","S","Self","Good",0.4509,"U",1,"moral"
7005,20,"male","R","S","P","Tra","C",1,2,8,"Val","S","Self","Good",0.5171,"U",1,"moral"
7005,20,"male","R","S","P","Tra","C",1,2,9,"Val","P","Self","Bad",0.5092,"Y",1,"immoral"
7005,20,"male","R","S","P","Tra","C",1,2,10,"Val","Tra","Other","Good",0.3973,"U",1,"moral"
7005,20,"male","R","S","P","Tra","C",1,2,11,"Val","C","Other","Bad",0.5074,"Y",1,"immoral"
7005,20,"male","R","S","P","Tra","C",1,2,12,"Val","Tra","Other","Good",0.6275,"U",1,"moral"
7005,20,"male","R","S","P","Tra","C",1,2,13,"Val","C","Other","Bad",0.4237,"Y",1,"immoral"
